time,seconds_elapsed,z,y,x
1700823729026625000,0.193625,-0.5675220489501953,0.019005000591278076,0.13695669174194336
1700823729042622000,0.2096220703125,-0.9156589508056641,-0.11532407999038696,-0.17436432838439941
1700823729055312000,0.222311767578125,-0.9156589508056641,-0.11532407999038696,-0.17436432838439941
1700823729066710000,0.2337099609375,-1.7674570083618164,0.3562103509902954,0.6850324869155884
1700823729077331000,0.2443310546875,-1.4556598663330078,0.6039833426475525,1.0688637495040894
1700823729087626500,0.25462646484375,-0.8960971832275391,0.7270221710205078,1.4923770427703857
1700823729097795800,0.2647958984375,-0.3494091033935547,0.8227883577346802,1.6945135593414307
1700823729107864800,0.27486474609375,-0.3383750915527344,0.5800743103027344,1.3110406398773193
1700823729117895000,0.28489501953125,0.055588722229003906,0.24697759747505188,0.7862048745155334
1700823729127868000,0.294867919921875,0.18990135192871094,-0.16596673429012299,0.1881873607635498
1700823729137887500,0.304887451171875,0.3947124481201172,-0.12536124885082245,0.22183763980865479
1700823729147967700,0.3149677734375,0.41219425201416016,0.06188446283340454,0.4164595603942871
1700823729158049800,0.3250498046875,0.0873250961303711,0.17263682186603546,0.5192177891731262
1700823729168429300,0.33542919921875,-0.33269309997558594,0.24875511229038239,0.3842087984085083
1700823729178360800,0.34536083984375,-0.55499267578125,0.19605493545532227,-0.12219429016113281
1700823729188204300,0.355204345703125,-0.00341033935546875,-0.20760361850261688,-0.7923380136489868
1700823729198672100,0.365672119140625,-0.1600656509399414,-0.05257426202297211,-0.3874979019165039
1700823729208258600,0.375258544921875,-0.013223648071289062,0.05737939476966858,0.08675706386566162
1700823729218547700,0.385547607421875,0.06664371490478516,0.35242366790771484,0.42191219329833984
1700823729228345300,0.395345458984375,-0.4021492004394531,0.539401650428772,0.7072833180427551
1700823729238201000,0.405201171875,-0.40747642517089844,0.6355573534965515,0.45674073696136475
1700823729248116500,0.415116455078125,-0.12821006774902344,0.4208582639694214,0.05171942710876465
1700823729258064000,0.42506396484375,0.053460121154785156,0.03454244136810303,-0.31489861011505127
1700823729268321300,0.4353212890625,0.34839916229248047,-0.18551453948020935,-0.4277803897857666
1700823729278165800,0.445165771484375,0.31479930877685547,-0.22222256660461426,-0.3006153106689453
1700823729288075300,0.4550751953125,0.14072322845458984,-0.1392073929309845,-0.20791137218475342
1700823729298056700,0.465056640625,-0.0032520294189453125,0.24402165412902832,-0.133378267288208
1700823729308153900,0.47515380859375,-0.16831207275390625,0.6271167993545532,-0.16181957721710205
1700823729318197500,0.485197509765625,-0.39516639709472656,0.7043622136116028,-0.18859219551086426
1700823729328050200,0.49505029296875,0.05016517639160156,0.5165109634399414,0.2570013999938965
1700823729337963000,0.504962890625,0.7212514877319336,-0.11052340269088745,0.014358043670654297
1700823729348058000,0.51505810546875,0.5476608276367188,-0.30188441276550293,-0.4094212055206299
1700823729357975600,0.5249755859375,0.3049812316894531,-0.44910722970962524,-0.8133971691131592
1700823729368259800,0.535259765625,1.6912670135498047,-0.5630804896354675,-0.9156928062438965
1700823729378137300,0.545137451171875,2.4062604904174805,-0.3877180814743042,-0.8536851406097412
1700823729388010800,0.5550107421875,1.8772506713867188,-0.32194408774375916,-0.8711906671524048
1700823729397959400,0.56495947265625,-0.3889350891113281,-0.23633939027786255,-0.6341514587402344
1700823729408002600,0.57500244140625,-1.7409000396728516,-0.35608428716659546,-0.31336140632629395
1700823729418133200,0.58513330078125,-1.2983779907226562,-0.5037672519683838,-0.5130884647369385
1700823729428013600,0.595013671875,-0.8096961975097656,-0.23885184526443481,-0.5692336559295654
1700823729438024000,0.60502392578125,-0.6848783493041992,-0.03426718711853027,-0.1540004014968872
1700823729448043000,0.61504296875,-0.8041477203369141,0.10814797878265381,0.23399567604064941
1700823729457967400,0.62496728515625,-0.21885967254638672,0.03907972574234009,0.05932259559631348
1700823729468006700,0.635006591796875,0.21050262451171875,-0.06882315874099731,-0.3906768560409546
1700823729478526000,0.64552587890625,0.22302913665771484,0.07082194089889526,-0.8452903032302856
1700823729488213000,0.655212890625,-0.11372089385986328,0.15404552221298218,-0.9030563831329346
1700823729498059500,0.6650595703125,-0.20746612548828125,-0.10312360525131226,-0.5617038607597351
1700823729507980800,0.674980712890625,-0.008523941040039062,-0.2801492214202881,0.1364506483078003
1700823729517943300,0.684943359375,0.17855358123779297,-0.28160977363586426,0.6433424949645996
1700823729527890700,0.694890625,0.2048931121826172,-0.25090688467025757,0.6398912072181702
1700823729537912800,0.704912841796875,0.156005859375,-0.16601723432540894,0.5239668488502502
1700823729548017400,0.715017333984375,0.11002063751220703,0.10580402612686157,0.2560122609138489
1700823729557968100,0.724968017578125,-0.10884571075439453,0.4030485153198242,-0.13375145196914673
1700823729567937500,0.7349375,-0.3652009963989258,0.4064551591873169,-0.4483036994934082
1700823729577940700,0.744940673828125,-0.4647989273071289,0.23847079277038574,-0.661387026309967
1700823729587986400,0.754986328125,-0.9571628570556641,0.11018270254135132,-0.44169652462005615
1700823729598244600,0.76524462890625,-0.47478580474853516,-0.21942347288131714,-0.2672243118286133
1700823729608053800,0.7750537109375,0.09565067291259766,-0.10716813802719116,0.01443946361541748
1700823729618002000,0.785001953125,0.5320491790771484,0.09802228212356567,0.38650432229042053
1700823729627936000,0.79493603515625,0.47855472564697266,-0.013288736343383789,0.4161515533924103
1700823729637952500,0.804952392578125,-0.15495967864990234,0.05822932720184326,0.22166484594345093
1700823729648070100,0.815070068359375,-0.5455732345581055,0.1609482765197754,-0.21562784910202026
1700823729657982200,0.824982177734375,-0.8867521286010742,0.2100677490234375,-0.494251549243927
1700823729667925500,0.834925537109375,-1.002303123474121,0.18159258365631104,-0.5246160626411438
1700823729677931300,0.84493115234375,-0.7574396133422852,-0.012713909149169922,-0.6328374743461609
1700823729687897600,0.854897705078125,0.053908348083496094,-0.25521421432495117,-1.022606372833252
1700823729697949400,0.864949462890625,0.42091941833496094,0.21230649948120117,-0.47839540243148804
1700823729708240100,0.875240234375,-0.01638507843017578,0.10650551319122314,0.16513019800186157
1700823729718071600,0.885071533203125,-0.45470523834228516,-0.2123929262161255,0.36982065439224243
1700823729727968300,0.89496826171875,-0.35024166107177734,-0.33023369312286377,0.3246070444583893
1700823729737946000,0.904946044921875,-0.08180427551269531,-0.1118166446685791,0.3108615577220917
1700823729747974700,0.914974609375,-0.05607795715332031,0.009906888008117676,0.16825932264328003
1700823729757940700,0.924940673828125,-0.09206771850585938,0.03654658794403076,-0.27408331632614136
1700823729768041500,0.93504150390625,-0.17117595672607422,0.10148251056671143,-0.41113412380218506
1700823729778031600,0.945031494140625,-0.5077075958251953,0.041294097900390625,-0.2638336420059204
1700823729788014800,0.955014892578125,-1.0713796615600586,-0.1148531436920166,-0.21309202909469604
1700823729798117400,0.965117431640625,-0.9486484527587891,-0.23776161670684814,-0.23592710494995117
1700823729808127700,0.975127685546875,-0.7773818969726562,-0.08959019184112549,-0.029828906059265137
1700823729818164700,0.985164794921875,-0.1115102767944336,-0.056952714920043945,0.21720612049102783
1700823729828173300,0.99517333984375,0.4156036376953125,0.021361708641052246,0.08048033714294434
1700823729838093300,1.00509326171875,0.36483097076416016,0.16603970527648926,0.046426475048065186
1700823729848123100,1.015123046875,0.32338619232177734,0.004221916198730469,-0.11806011199951172
1700823729858047500,1.025047607421875,-0.3000364303588867,-0.09445154666900635,-0.21908557415008545
1700823729868051700,1.0350517578125,-0.3154726028442383,0.04091811180114746,-0.28568142652511597
1700823729878008800,1.0450087890625,-0.36203479766845703,0.14632558822631836,-0.2545809745788574
1700823729888685800,1.055685791015625,-0.13518524169921875,-0.03357827663421631,-0.14816176891326904
1700823729898304500,1.065304443359375,0.2166128158569336,-0.16358602046966553,0.33229297399520874
1700823729908117200,1.0751171875,0.46815013885498047,-0.1979767084121704,0.8377166986465454
1700823729918039600,1.08503955078125,1.0256385803222656,-0.053785085678100586,0.6403602361679077
1700823729927991800,1.09499169921875,1.3427438735961914,0.20583760738372803,0.338321328163147
1700823729937975800,1.104975830078125,0.8449592590332031,0.16875922679901123,-0.002110600471496582
1700823729948203500,1.11520361328125,-0.21448040008544922,0.03156638145446777,-0.3366749882698059
1700823729958091300,1.12509130859375,-0.7311267852783203,-0.04877972602844238,-0.4265661835670471
1700823729968552200,1.13555224609375,-0.13951778411865234,-0.17379534244537354,0.2210802435874939
1700823729978235600,1.145235595703125,-0.1427011489868164,-0.15312397480010986,0.2224847674369812
1700823729988106800,1.155106689453125,0.34498119354248047,-0.06270110607147217,0.4213183522224426
1700823729998049300,1.16504931640625,0.2086009979248047,-0.013417243957519531,0.460462749004364
1700823730007990300,1.174990234375,-0.017279624938964844,-0.03177666664123535,0.47558683156967163
1700823730017952500,1.184952392578125,0.20901775360107422,-0.030175447463989258,0.34946131706237793
1700823730028181200,1.19518115234375,0.9278831481933594,-0.0663919448852539,-0.019520223140716553
1700823730038395100,1.20539501953125,1.5105400085449219,-0.033875107765197754,-0.6456215381622314
1700823730048256000,1.215256103515625,1.2379140853881836,0.10966217517852783,-0.9346932172775269
1700823730058116000,1.2251162109375,0.008889198303222656,-0.009435892105102539,-0.9935389757156372
1700823730068031000,1.235031005859375,-0.8610782623291016,-0.187424898147583,-0.40498292446136475
1700823730078040600,1.24504052734375,-1.254995346069336,-0.25602424144744873,0.11769628524780273
1700823730087998200,1.254998291015625,-1.205709457397461,-0.23665690422058105,0.2563393712043762
1700823730097957000,1.26495703125,-0.8695087432861328,-0.23652541637420654,0.35236936807632446
1700823730108204500,1.27520458984375,-0.1271209716796875,-0.19519400596618652,0.12915563583374023
1700823730118054700,1.2850546875,0.3643617630004883,-0.17725837230682373,-0.17069482803344727
1700823730127960300,1.294960205078125,0.6512393951416016,-0.1539233922958374,-0.2892649173736572
1700823730137937700,1.304937744140625,0.8164215087890625,-0.12451493740081787,-0.1854928731918335
1700823730147922000,1.314921875,0.9248676300048828,-0.0810619592666626,-0.16780835390090942
1700823730157986000,1.324986083984375,0.4784212112426758,-0.0963602066040039,-0.13816899061203003
1700823730167960600,1.334960693359375,0.11821746826171875,-0.13847029209136963,-0.10913646221160889
1700823730178005800,1.345005859375,-0.170074462890625,0.022470712661743164,-0.1323772668838501
1700823730187943000,1.35494287109375,-0.7694873809814453,0.009417891502380371,-0.10609352588653564
1700823730198022000,1.36502197265625,-1.3350372314453125,-0.09787726402282715,-0.29655539989471436
1700823730207938600,1.3749384765625,-1.5734214782714844,-0.06773746013641357,-0.46326398849487305
1700823730217910300,1.38491015625,-1.2282934188842773,-0.05351066589355469,-0.6696761846542358
1700823730227919000,1.394919189453125,-0.7861242294311523,0.011132359504699707,-0.8059242963790894
1700823730237917400,1.40491748046875,-0.4790534973144531,-0.03109145164489746,-0.805191159248352
1700823730248051200,1.41505126953125,0.016111373901367188,-0.10504293441772461,-0.7044632434844971
1700823730258012200,1.42501220703125,0.32715606689453125,-0.051984190940856934,-0.6423591375350952
1700823730268007200,1.435007080078125,0.40590381622314453,-0.08545565605163574,-0.7307860851287842
1700823730277986000,1.444986083984375,0.26617908477783203,-0.08541560173034668,-0.7875566482543945
1700823730287992000,1.454991943359375,0.9596424102783203,0.04893362522125244,-0.2248321771621704
1700823730297984500,1.464984619140625,0.08806705474853516,-0.12552332878112793,0.05425846576690674
1700823730307975200,1.47497509765625,-0.8550691604614258,-0.3727766275405884,0.03255724906921387
1700823730317994200,1.484994140625,-1.2569122314453125,-0.09894824028015137,-0.11812567710876465
1700823730328085000,1.4950849609375,-1.1430435180664062,-0.033239006996154785,0.0048944950103759766
1700823730338133500,1.505133544921875,-1.4622955322265625,-0.3074769973754883,0.17773878574371338
1700823730348090400,1.51509033203125,-2.0754833221435547,-0.6226369142532349,0.5305567979812622
1700823730358003200,1.525003173828125,-1.876664638519287,-0.7656375765800476,0.7951640486717224
1700823730367952100,1.5349521484375,-0.9399070739746094,-0.6995218992233276,0.5838726162910461
1700823730377916400,1.54491650390625,-0.37546348571777344,-0.588675320148468,-0.4078167676925659
1700823730388001300,1.555001220703125,-0.3769702911376953,-0.22669386863708496,-0.7269607782363892
1700823730398001700,1.565001708984375,-0.9637689590454102,-0.3080712556838989,-0.7955114841461182
1700823730408031700,1.57503173828125,-0.9481725692749023,-0.4255410432815552,-1.303606629371643
1700823730418006500,1.585006591796875,-1.3086605072021484,-0.5487391948699951,-1.6684232950210571
1700823730428007700,1.595007568359375,-3.1646385192871094,-0.6456016302108765,-1.8855139017105103
1700823730438002000,1.605001953125,-7.760274410247803,-1.5146223306655884,-1.7650445699691772
1700823730447949800,1.61494970703125,-9.811663627624512,-2.213797092437744,-1.4421601295471191
1700823730457982000,1.62498193359375,-6.834353446960449,-2.038356304168701,-0.6591372489929199
1700823730468010000,1.635010009765625,-0.006160736083984375,-1.5355647802352905,-0.6596466302871704
1700823730478107400,1.645107421875,-0.8540534973144531,-1.0435374975204468,-2.0530762672424316
1700823730488043800,1.655043701171875,-4.443751811981201,-0.83656245470047,-3.6933670043945312
1700823730498153000,1.665153076171875,-0.24427032470703125,-0.3913300037384033,-3.166550874710083
1700823730508095500,1.675095458984375,5.718976020812988,-0.24968230724334717,-1.739687204360962
1700823730518209800,1.685209716796875,7.020191192626953,-0.3903160095214844,0.10767218470573425
1700823730528692500,1.6956923828125,3.625865936279297,-0.5687462687492371,1.7474225759506226
1700823730538314200,1.705314208984375,-0.004094123840332031,-0.8357632160186768,1.521124005317688
1700823730548088000,1.715088134765625,-1.0161876678466797,-1.1763505935668945,-0.21157851815223694
1700823730558004000,1.72500390625,2.9960641860961914,-1.0300662517547607,-1.6078704595565796
1700823730567917600,1.73491748046875,3.8441314697265625,-1.5243486166000366,-2.420154094696045
1700823730577941800,1.744941650390625,2.5411195755004883,-1.2485003471374512,-1.6715754270553589
1700823730587959300,1.754959228515625,1.3704500198364258,-0.6920183897018433,0.735362708568573
1700823730597977600,1.7649775390625,-0.28854942321777344,-0.5097752809524536,2.0310111045837402
1700823730607915800,1.774915771484375,-0.8480911254882812,-0.7175050973892212,2.3785791397094727
1700823730617929000,1.784928955078125,0.4003744125366211,-0.8047654032707214,2.550830364227295
1700823730627954000,1.794953857421875,0.6682758331298828,-0.6258832216262817,2.385287284851074
1700823730637967000,1.804967041015625,2.6567678451538086,-0.4811410903930664,1.0413293838500977
1700823730647983000,1.814983154296875,2.8560047149658203,-0.40027010440826416,-0.06141173839569092
1700823730657989400,1.8249892578125,3.4460601806640625,-0.1920619010925293,-0.740694522857666
1700823730668003800,1.83500390625,3.500086784362793,0.15651929378509521,-0.8546263575553894
1700823730678011400,1.845011474609375,3.625295639038086,0.09867644309997559,-0.7359921336174011
1700823730687977700,1.854977783203125,3.710568428039551,-0.15711021423339844,-0.2668191194534302
1700823730697998300,1.864998291015625,4.269648551940918,0.03140735626220703,0.4912489056587219
1700823730708006700,1.875006591796875,3.09415340423584,0.32945942878723145,1.2183914184570312
1700823730718011000,1.885010986328125,1.1994647979736328,0.11449861526489258,1.801849126815796
1700823730728019500,1.89501953125,0.8246612548828125,-0.2913675308227539,2.139535903930664
1700823730738011100,1.90501123046875,0.5947055816650391,-0.3643949031829834,2.0561277866363525
1700823730748044500,1.91504443359375,-0.3063774108886719,0.20456767082214355,1.7306734323501587
1700823730758034200,1.9250341796875,-0.689849853515625,0.6642254590988159,1.3253676891326904
1700823730768070700,1.935070556640625,-0.270904541015625,0.7144222259521484,1.024918556213379
1700823730778088000,1.945087890625,0.3618431091308594,0.9139797687530518,1.2219367027282715
1700823730788007400,1.95500732421875,0.8779392242431641,1.2584728002548218,1.7560265064239502
1700823730797993200,1.9649931640625,0.9899444580078125,1.4380440711975098,2.0444865226745605
1700823730807924200,1.97492431640625,0.3070821762084961,1.2549827098846436,1.7454853057861328
1700823730817930500,1.984930419921875,-0.43152904510498047,0.8579217195510864,1.1629735231399536
1700823730827905800,1.99490576171875,-0.8642263412475586,0.4875890016555786,0.7078955173492432
1700823730837937400,2.0049375,-0.7118587493896484,0.24538779258728027,0.35801082849502563
1700823730847912200,2.014912109375,-0.2614870071411133,0.20289087295532227,0.0994948148727417
1700823730857964500,2.024964599609375,0.04327678680419922,0.2004094123840332,-0.21128571033477783
1700823730867982800,2.03498291015625,0.08413887023925781,0.42207252979278564,-0.2755330801010132
1700823730878015500,2.045015380859375,0.006731986999511719,0.7269731760025024,-0.2897820472717285
1700823730888107300,2.055107177734375,-0.3759117126464844,0.9431020021438599,-0.15872067213058472
1700823730898099200,2.06509912109375,-0.7511587142944336,1.0178837776184082,0.2883315086364746
1700823730908071200,2.0750712890625,-0.8293743133544922,0.9793486595153809,0.4875163435935974
1700823730918091500,2.085091552734375,-1.0301847457885742,1.0883277654647827,0.2865786552429199
1700823730928080000,2.095079833984375,-0.9870738983154297,1.1656904220581055,0.20165687799453735
1700823730938095400,2.105095458984375,0.23354434967041016,1.2644131183624268,0.3536521792411804
1700823730948107300,2.115107177734375,0.25195789337158203,1.3698339462280273,0.39233073592185974
1700823730958112000,2.125112060546875,-0.016971588134765625,1.3096961975097656,0.2615928053855896
1700823730968076500,2.13507666015625,0.40181541442871094,0.791584849357605,-0.39389270544052124
1700823730978152700,2.145152587890625,0.45152950286865234,0.3813246488571167,-0.5658368468284607
1700823730988121300,2.155121337890625,-0.5978412628173828,0.2237842082977295,-0.33599698543548584
1700823730998158600,2.16515869140625,-1.5506086349487305,0.10282313823699951,-0.11411869525909424
1700823731008130800,2.175130859375,-1.7783498764038086,0.010343074798583984,0.33242857456207275
1700823731018168800,2.1851689453125,-1.4236564636230469,-0.012272357940673828,0.6092676520347595
1700823731028134400,2.195134521484375,-0.7261667251586914,-0.20159661769866943,0.18573307991027832
1700823731038133800,2.2051337890625,0.01705169677734375,-0.28927385807037354,-0.5111818313598633
1700823731048107800,2.215107666015625,1.3713397979736328,-0.37994420528411865,-1.2959431409835815
1700823731058017500,2.225017578125,2.4519128799438477,-0.43631410598754883,-1.844669222831726
1700823731067993000,2.2349931640625,2.080599784851074,-0.2959069013595581,-1.6345391273498535
1700823731077983200,2.244983154296875,1.7403888702392578,0.20130205154418945,-0.7164574861526489
1700823731087972600,2.25497265625,1.896092414855957,0.5935014486312866,0.11037123203277588
1700823731097980700,2.264980712890625,1.7283306121826172,0.3137139081954956,0.27205896377563477
1700823731107982300,2.274982421875,0.9980869293212891,-0.052752017974853516,0.3254976272583008
1700823731117988000,2.284988037109375,0.061758995056152344,-0.3177729845046997,0.17180240154266357
1700823731127942100,2.294942138671875,-0.5444393157958984,-0.425656795501709,0.02172243595123291
1700823731137972000,2.304971923828125,-0.7262468338012695,-0.47925102710723877,-0.012408852577209473
1700823731147991000,2.314990966796875,-0.7365961074829102,-0.31767404079437256,0.31098318099975586
1700823731158005500,2.325005615234375,-0.4958353042602539,-0.03127181529998779,0.5782103538513184
1700823731167946200,2.3349462890625,-0.30135536193847656,0.20666730403900146,0.33424949645996094
1700823731177921000,2.344921142578125,-0.08306217193603516,0.18224024772644043,-0.052307963371276855
1700823731187969000,2.354968994140625,0.0050640106201171875,0.1200946569442749,-0.2694622278213501
1700823731197986000,2.364986083984375,0.2185201644897461,0.030965447425842285,-0.31160569190979004
1700823731208060000,2.375059814453125,0.4256868362426758,0.05759406089782715,-0.09428048133850098
1700823731218145500,2.3851455078125,0.3995695114135742,0.10625731945037842,0.12270975112915039
1700823731228112600,2.395112548828125,0.10440635681152344,0.08572697639465332,0.14047598838806152
1700823731237996800,2.404996826171875,-0.14507198333740234,0.023757100105285645,0.16311311721801758
1700823731247933000,2.414932861328125,-1.0509719848632812,-0.42912614345550537,0.3198350667953491
1700823731258005500,2.425005615234375,-1.201700210571289,-0.27240270376205444,0.48842519521713257
1700823731268037000,2.435037109375,-0.9657697677612305,0.03346329927444458,0.26335155963897705
1700823731278266000,2.44526611328125,-0.291046142578125,0.2428303360939026,-0.001178741455078125
1700823731288058000,2.45505810546875,0.18601417541503906,0.4725930094718933,-0.32367396354675293
1700823731297971000,2.464970947265625,0.1335468292236328,0.6712353229522705,-0.5235410928726196
1700823731307962600,2.474962646484375,0.00849151611328125,0.6112033724784851,-0.5321699380874634
1700823731317930200,2.48493017578125,-0.1780853271484375,0.16841143369674683,-0.4521373510360718
1700823731327934700,2.494934814453125,-0.4875602722167969,-0.2737535834312439,-0.06265485286712646
1700823731337939200,2.504939208984375,-0.9524946212768555,-0.6336857676506042,0.265822172164917
1700823731347940000,2.514940185546875,-0.9189167022705078,-0.7443305253982544,0.6781514883041382
1700823731357949700,2.52494970703125,0.10072708129882812,-0.6303488612174988,1.1672821044921875
1700823731367952000,2.534951904296875,0.38808155059814453,-0.4509338140487671,1.1216824054718018
1700823731377946400,2.5449462890625,0.1429452896118164,-0.24443113803863525,0.7943495512008667
1700823731387963600,2.554963623046875,0.29227161407470703,-0.1774139404296875,0.4599900245666504
1700823731397970000,2.564969970703125,0.21417713165283203,-0.24493566155433655,0.019747138023376465
1700823731407993900,2.574993896484375,-0.2753009796142578,-0.18467792868614197,-0.18992280960083008
1700823731418145500,2.5851455078125,-0.5860214233398438,-0.32793039083480835,-0.35925912857055664
1700823731428156700,2.59515673828125,-0.8827724456787109,-0.40317025780677795,-0.41481518745422363
1700823731438075000,2.605074951171875,-0.5481319427490234,-0.18158525228500366,-0.19532227516174316
1700823731448024300,2.6150244140625,-0.053092002868652344,0.06686675548553467,0.02192401885986328
1700823731458029800,2.62502978515625,0.1749591827392578,0.10522809624671936,-0.07795178890228271
1700823731468012800,2.6350126953125,0.030730247497558594,0.17601093649864197,-0.3769930601119995
1700823731478065400,2.6450654296875,-0.3552064895629883,0.29550477862358093,-0.6427475214004517
1700823731487971300,2.654971435546875,-0.28262996673583984,0.47877222299575806,-0.5364179611206055
1700823731498035700,2.66503564453125,0.20573139190673828,0.5492599606513977,-0.47863447666168213
1700823731508028400,2.6750283203125,0.5188865661621094,0.6040787100791931,-0.3950134515762329
1700823731518020000,2.68502001953125,0.47316551208496094,0.5225765705108643,-0.42018795013427734
1700823731528042000,2.6950419921875,0.4702730178833008,0.3948764503002167,-0.519425630569458
1700823731538011100,2.70501123046875,0.2625131607055664,0.3707118034362793,-0.4826622009277344
1700823731548025600,2.715025634765625,0.0890798568725586,0.40150704979896545,-0.4095182418823242
1700823731557956900,2.724956787109375,-0.6824350357055664,0.2550472319126129,-0.20715641975402832
1700823731567993900,2.734993896484375,-0.7410163879394531,0.11676275730133057,-0.21302497386932373
1700823731578190300,2.7451904296875,-0.8781814575195312,-0.02251899242401123,-0.010152339935302734
1700823731588163800,2.755163818359375,-1.0441627502441406,-0.28821712732315063,-0.0933159589767456
1700823731598042400,2.76504248046875,-0.9388561248779297,-0.23662883043289185,-0.013048291206359863
1700823731607970600,2.774970458984375,-0.41301822662353516,0.01854807138442993,0.057031869888305664
1700823731617939500,2.784939453125,0.6605901718139648,0.41173046827316284,0.07200300693511963
1700823731627992600,2.79499267578125,1.2817449569702148,0.7381953597068787,0.15872907638549805
1700823731637950700,2.80495068359375,1.1238775253295898,0.6075106859207153,0.2040807008743286
1700823731647959300,2.814959228515625,0.41144561767578125,0.2764599323272705,0.43113166093826294
1700823731658049300,2.82504931640625,-0.01580047607421875,0.10407429933547974,0.7896807193756104
1700823731668015600,2.835015625,-0.1849660873413086,0.00164717435836792,0.8524142503738403
1700823731678090800,2.8450908203125,-0.47736454010009766,-0.18456774950027466,0.6147891283035278
1700823731688061400,2.8550615234375,-0.9176130294799805,-0.11934059858322144,0.3294808864593506
1700823731698105600,2.865105712890625,-1.1158771514892578,0.02624523639678955,0.005210429430007935
1700823731708078300,2.875078369140625,-0.8028202056884766,0.17773354053497314,-0.2766155004501343
1700823731718113800,2.88511376953125,-0.3589162826538086,0.18044352531433105,-0.563847005367279
1700823731728327000,2.895326904296875,-0.4183368682861328,0.04728090763092041,-0.7433836460113525
1700823731738281500,2.905281494140625,-0.18668365478515625,-0.2074650526046753,-0.7228933572769165
1700823731748250000,2.91525,-0.17620372772216797,-0.24030590057373047,-0.39547890424728394
1700823731758083600,2.92508349609375,-0.5132389068603516,-0.12357354164123535,-0.03810988366603851
1700823731768022800,2.935022705078125,-0.45400238037109375,-0.2388761043548584,0.10031971335411072
1700823731778004500,2.94500439453125,-0.36496639251708984,-0.30706608295440674,0.1426396667957306
1700823731787997700,2.954997802734375,-0.9469823837280273,-0.3098255395889282,0.1903855800628662
1700823731797986300,2.964986328125,-1.1903619766235352,-0.44181036949157715,-0.05219918489456177
1700823731807958300,2.974958251953125,-1.10211181640625,-0.5813412666320801,-0.3512522578239441
1700823731817886200,2.98488623046875,-0.5390691757202148,-0.7035341262817383,-0.48678702116012573
1700823731827972600,2.99497265625,-0.09370708465576172,-0.943011999130249,-0.5199142694473267
1700823731838030300,3.0050302734375,0.44670963287353516,-0.9864948987960815,-0.06527364253997803
1700823731848044500,3.01504443359375,0.5287008285522461,-0.7606759071350098,0.4565579891204834
1700823731857965300,3.02496533203125,0.6862268447875977,-0.613357424736023,0.9612126350402832
1700823731867913200,3.034913330078125,0.3479156494140625,-0.47092998027801514,1.752899169921875
1700823731878026500,3.045026611328125,1.0084466934204102,-0.94189453125,1.547837257385254
1700823731888044800,3.055044921875,-0.041457176208496094,-0.6460285186767578,1.5129787921905518
1700823731898093800,3.06509375,-1.1354694366455078,-0.3007701635360718,0.4589998722076416
1700823731908009500,3.075009521484375,-1.6065254211425781,-0.4440946578979492,-0.5545320510864258
1700823731917998300,3.084998291015625,-1.8932008743286133,-0.7084375619888306,-1.4038922786712646
1700823731928564700,3.095564697265625,-1.1342535018920898,-0.7343484163284302,-1.7779464721679688
1700823731938243300,3.105243408203125,-0.35164833068847656,-0.4077516794204712,-1.6192946434020996
1700823731948097500,3.11509765625,1.5027332305908203,-0.2916872501373291,-2.206057071685791
1700823731958014700,3.1250146484375,1.148630142211914,-1.1775708198547363,-1.4579839706420898
1700823731968008000,3.135008056640625,1.022221565246582,-1.8238818645477295,0.5290117263793945
1700823731978012000,3.145011962890625,0.8954381942749023,-1.0668354034423828,2.2908854484558105
1700823731987998500,3.15499853515625,0.2418050765991211,-0.04028797149658203,3.3284244537353516
1700823731997994800,3.164994873046875,-0.559901237487793,-0.5413641929626465,2.397857189178467
1700823732007987000,3.174987060546875,-0.9563794136047363,-1.8643453121185303,0.7623658180236816
1700823732017964500,3.184964599609375,-0.8830838203430176,-2.215588331222534,-0.6038918495178223
1700823732028055300,3.19505517578125,0.6149988174438477,-1.059680461883545,-2.2544901371002197
1700823732038129700,3.205129638671875,2.164257049560547,-0.2634248733520508,-3.7267677783966064
1700823732048041700,3.215041748046875,3.8897581100463867,-0.6464259624481201,-4.338555812835693
1700823732058274800,3.22527490234375,4.741350173950195,-1.4464335441589355,-3.966646194458008
1700823732068071400,3.235071533203125,2.903656005859375,-0.770946741104126,-2.373868227005005
1700823732078393300,3.245393310546875,0.837677001953125,-0.19568800926208496,-0.966712474822998
1700823732088185000,3.25518505859375,-0.4786520004272461,-0.6073470115661621,0.024428129196166992
1700823732098078000,3.265077880859375,-1.008655071258545,-1.3111183643341064,1.9999520778656006
1700823732107993000,3.2749931640625,-0.6810221672058105,-0.8762128353118896,3.741610050201416
1700823732117947100,3.284947021484375,-1.4933948516845703,-0.3384857177734375,4.697781562805176
1700823732128089000,3.295089111328125,-1.3471322059631348,-0.08115482330322266,3.568995714187622
1700823732137984500,3.304984619140625,-1.1754250526428223,0.37657904624938965,2.2089712619781494
1700823732147919400,3.31491943359375,0.2584095001220703,0.1549696922302246,0.6459505558013916
1700823732157909500,3.324909423828125,1.9505653381347656,-0.11934828758239746,-0.874359130859375
1700823732167946800,3.33494677734375,1.7039480209350586,0.032581329345703125,-1.9224562644958496
1700823732177931000,3.344930908203125,0.3391866683959961,0.27978086471557617,-0.892401933670044
1700823732187903000,3.354903076171875,0.11335182189941406,0.3327507972717285,0.4236562252044678
1700823732197894000,3.364893798828125,0.5583152770996094,1.114370584487915,1.5626640319824219
1700823732207914000,3.3749140625,0.9954566955566406,1.6285042762756348,1.626601219177246
1700823732217919000,3.3849189453125,1.1784896850585938,1.5851995944976807,0.3546173572540283
1700823732227930600,3.3949306640625,1.3572263717651367,1.3183214664459229,-1.641053557395935
1700823732237944800,3.40494482421875,1.5665655136108398,1.753643274307251,-3.473162889480591
1700823732247949800,3.41494970703125,1.248037338256836,2.4497032165527344,-4.561928749084473
1700823732257947400,3.424947509765625,0.8650417327880859,2.7742035388946533,-4.35023307800293
1700823732267950600,3.43495068359375,0.8515968322753906,1.9503227472305298,-2.7896156311035156
1700823732277970000,3.444969970703125,0.47543811798095703,0.2786586284637451,-1.1926296949386597
1700823732287970000,3.454969970703125,-1.307436466217041,-0.07027840614318848,-0.3937950134277344
1700823732297980000,3.46497998046875,-3.2658352851867676,-0.023313045501708984,0.14446020126342773
1700823732307987000,3.474987060546875,-3.9112143516540527,0.14311742782592773,0.8323066234588623
1700823732317992000,3.484991943359375,-2.9453067779541016,0.6545436382293701,1.1962909698486328
1700823732327997400,3.49499755859375,-1.648005485534668,1.2885162830352783,1.2910306453704834
1700823732337976300,3.504976318359375,-0.3677053451538086,1.747366189956665,0.8813040256500244
1700823732347987700,3.51498779296875,0.84136962890625,1.7132816314697266,0.1580197811126709
1700823732357955300,3.524955322265625,1.711970329284668,1.6385078430175781,-0.29595351219177246
1700823732368130600,3.535130615234375,2.391305923461914,1.1391334533691406,-0.5860178470611572
1700823732378060300,3.545060302734375,1.6327323913574219,0.29406261444091797,-0.6022360324859619
1700823732388009700,3.555009765625,-0.5798401832580566,-0.1709277629852295,-0.831026554107666
1700823732398048800,3.565048828125,-1.7708063125610352,-0.3735029697418213,-1.2098467350006104
1700823732408014800,3.575014892578125,-1.4098601341247559,-0.7775988578796387,-1.8439950942993164
1700823732418008600,3.585008544921875,-1.3152427673339844,-0.4670281410217285,-2.103116035461426
1700823732428016000,3.59501611328125,-0.7969493865966797,0.5040080547332764,-1.783287525177002
1700823732438058500,3.60505859375,0.47257137298583984,1.7023522853851318,-0.8970441818237305
1700823732447970300,3.61497021484375,0.5797977447509766,2.3873941898345947,-0.4486856460571289
1700823732457947600,3.62494775390625,0.43627262115478516,1.823080062866211,-0.6004951000213623
1700823732467910400,3.634910400390625,-0.40059614181518555,0.5180256366729736,-0.8876612186431885
1700823732477930800,3.6449306640625,-0.3140244483947754,-0.15152740478515625,-0.8206520080566406
1700823732487949800,3.65494970703125,4.661460876464844,-1.601618766784668,-0.02641582489013672
1700823732497917000,3.6649169921875,-1.2751197814941406,0.5860228538513184,0.441220760345459
1700823732507923500,3.67492333984375,-0.09541130065917969,1.4358720779418945,-0.11045360565185547
1700823732517949200,3.68494921875,0.059543609619140625,2.0473320484161377,1.1059327125549316
1700823732527981600,3.694981689453125,0.39556217193603516,3.2514960765838623,0.4351778030395508
1700823732537998300,3.704998291015625,0.8560266494750977,2.4299983978271484,-0.3104572296142578
1700823732548005000,3.715005126953125,0.2194671630859375,1.160668134689331,-0.04539632797241211
1700823732558044700,3.725044677734375,-1.701688289642334,-0.5009169578552246,-0.3809208869934082
1700823732567979800,3.734979736328125,-2.8628673553466797,-1.721684455871582,-0.9792280197143555
1700823732578006800,3.7450068359375,-2.7237548828125,-1.0861833095550537,-0.463559627532959
1700823732588095500,3.755095458984375,-1.5678291320800781,-0.41754865646362305,-0.40462398529052734
1700823732598139100,3.76513916015625,0.8632102012634277,0.44858407974243164,1.2223920822143555
1700823732608313600,3.775313720703125,3.1053595542907715,0.6117305755615234,1.9521918296813965
1700823732618185700,3.785185791015625,3.461958408355713,-0.5983157157897949,1.8020319938659668
1700823732628147500,3.7951474609375,4.64124059677124,-1.6426076889038086,1.8657116889953613
1700823732638085600,3.805085693359375,3.03521728515625,-1.6098053455352783,1.125941276550293
1700823732648019500,3.81501953125,2.0966506004333496,-1.1082651615142822,0.5197811126708984
1700823732658014700,3.8250146484375,-0.10492897033691406,-0.7191083431243896,-0.7424850463867188
1700823732668033800,3.83503369140625,-1.4689984321594238,-1.9776837825775146,0.22477340698242188
1700823732677997800,3.844997802734375,-1.7756991386413574,-2.2288875579833984,0.6847071647644043
1700823732687921000,3.8549208984375,-1.8953614234924316,-1.3223693370819092,0.6694035530090332
1700823732697990000,3.864989990234375,-1.54805326461792,-1.0100924968719482,0.2734541893005371
1700823732707926000,3.874926025390625,-1.0856428146362305,-0.8424835205078125,-0.12064886093139648
1700823732717940500,3.8849404296875,-0.4228057861328125,-0.6278347969055176,-1.0207409858703613
1700823732727918300,3.89491845703125,0.13257932662963867,0.26166415214538574,-1.2843875885009766
1700823732738210000,3.9052099609375,1.0115299224853516,1.438416838645935,-0.46212244033813477
1700823732748096500,3.915096435546875,0.2963752746582031,2.604685068130493,0.9936485290527344
1700823732758048300,3.92504833984375,0.02607583999633789,3.3482770919799805,3.0573673248291016
1700823732768030700,3.93503076171875,0.1189579963684082,2.672987222671509,3.982790946960449
1700823732778075000,3.945074951171875,-1.0391058921813965,0.7310923337936401,3.588982105255127
1700823732788040000,3.9550400390625,-2.218257427215576,-1.6780872344970703,2.606846332550049
1700823732798048000,3.965048095703125,-2.0411953926086426,-2.451883316040039,-0.2678232192993164
1700823732808045000,3.975045166015625,-0.5106067657470703,-0.6362705230712891,-0.8845210075378418
1700823732818085400,3.98508544921875,0.7791247367858887,1.150129795074463,-0.5812821388244629
1700823732828156700,3.99515673828125,1.190330982208252,1.8350017070770264,-0.008829116821289062
1700823732838124800,4.005124755859375,1.2247800827026367,0.6919021606445312,0.11701393127441406
1700823732848304400,4.015304443359375,3.220022678375244,-1.8041149377822876,-0.2296886444091797
1700823732858210800,4.0252109375,4.1570234298706055,-3.2672648429870605,-0.9684481620788574
1700823732868077300,4.035077392578125,-0.3429889678955078,-1.870309829711914,-1.8273835182189941
1700823732878159000,4.0451591796875,-3.292544364929199,0.9044911861419678,-2.856001853942871
1700823732888116000,4.055115966796875,-2.7777578830718994,0.8618479371070862,-3.6871519088745117
1700823732898036000,4.065035888671875,-0.4649934768676758,-1.1180347204208374,-3.6156086921691895
1700823732907995100,4.0749951171875,1.4525933265686035,-1.5836312770843506,-2.0574440956115723
1700823732917953000,4.084953125,3.106008529663086,-1.0416537523269653,-0.27105712890625
1700823732927950000,4.0949501953125,3.5401129722595215,0.3898348808288574,1.1989831924438477
1700823732937926400,4.104926513671875,2.192415714263916,1.4269123077392578,1.1778345108032227
1700823732947946800,4.11494677734375,0.22133779525756836,0.9126196503639221,0.4011812210083008
1700823732957967400,4.12496728515625,-0.48219943046569824,0.2407374382019043,-0.11923694610595703
1700823732967967700,4.1349677734375,-0.41834592819213867,-0.3837665319442749,-0.9448256492614746
1700823732977975800,4.144975830078125,-0.6684761047363281,-1.12636399269104,-1.5455713272094727
1700823732987970300,4.15497021484375,-0.5514850616455078,-1.7958053350448608,-1.4562568664550781
1700823732998005200,4.165005126953125,0.1481025218963623,-1.6123045682907104,-0.7122440338134766
1700823733008034000,4.175033935546875,2.3491363525390625,-0.4998050928115845,0.21669864654541016
1700823733018038500,4.18503857421875,3.0171594619750977,0.4426558017730713,0.9055147171020508
1700823733028055300,4.19505517578125,2.044796943664551,0.5919960737228394,0.15050411224365234
1700823733037997600,4.20499755859375,0.7282061576843262,0.49829232692718506,-0.9991512298583984
1700823733047926800,4.2149267578125,-0.2248859405517578,0.7153031229972839,-1.1704397201538086
1700823733057964000,4.224964111328125,0.7581756114959717,0.3722226619720459,-1.5280957221984863
1700823733067937000,4.23493701171875,1.1645126342773438,-0.1221550703048706,-1.5855278968811035
1700823733077952000,4.244951904296875,0.8006000518798828,-0.717241644859314,-1.4698381423950195
1700823733087959000,4.254958984375,0.7554147243499756,-0.5631715059280396,-0.8777694702148438
1700823733097934600,4.2649345703125,-0.16982197761535645,0.37078630924224854,-0.47298240661621094
1700823733107902700,4.27490283203125,0.12596750259399414,0.8474690914154053,-0.4295768737792969
1700823733117904000,4.28490380859375,0.5654044151306152,0.8821145296096802,-0.7007827758789062
1700823733127879000,4.29487890625,0.9606282711029053,0.7991739511489868,-0.4108257293701172
1700823733137953500,4.30495361328125,0.9383797645568848,0.9501137733459473,-0.34021568298339844
1700823733147939800,4.31493994140625,1.2665951251983643,0.9479128122329712,-0.9354791641235352
1700823733157930800,4.3249306640625,2.1780827045440674,0.7558295726776123,-1.5831785202026367
1700823733167936500,4.3349365234375,2.5739474296569824,0.9235544204711914,-2.7780661582946777
1700823733177938200,4.344938232421875,2.6059064865112305,0.7012770175933838,-4.300323009490967
1700823733187900700,4.354900634765625,2.425381660461426,0.6299620866775513,-6.392943382263184
1700823733197915400,4.364915283203125,1.4343265295028687,0.10638117790222168,-7.78920841217041
1700823733207930600,4.3749306640625,-0.5846356749534607,-1.0894279479980469,-8.223235130310059
1700823733217927400,4.384927490234375,-2.068828582763672,-2.117795944213867,-6.256736755371094
1700823733227954700,4.39495458984375,-4.5092668533325195,-2.3029134273529053,-2.177743911743164
1700823733237961700,4.404961669921875,-6.603076457977295,-1.4142534732818604,3.4592514038085938
1700823733248088300,4.41508837890625,-8.255776405334473,-0.030924320220947266,10.468683242797852
1700823733258114800,4.42511474609375,-16.285274505615234,-1.165572166442871,14.563532829284668
1700823733268011300,4.43501123046875,-1.7881708145141602,-1.5596802234649658,7.675484657287598
1700823733278082000,4.44508203125,8.097457885742188,-4.828847885131836,3.2555618286132812
1700823733287981600,4.454981689453125,8.55534839630127,-3.9303112030029297,-0.419891357421875
1700823733297948000,4.464947998046875,6.065032482147217,0.08251404762268066,-1.0197248458862305
1700823733307973400,4.474973388671875,1.20137619972229,0.7443914413452148,-2.555392265319824
1700823733318077200,4.4850771484375,-0.45930349826812744,-1.2999334335327148,-2.5392255783081055
1700823733328137200,4.49513720703125,-0.04443645477294922,-2.394683361053467,-1.0355377197265625
1700823733338172200,4.505172119140625,0.3330174684524536,-3.3010520935058594,0.35533618927001953
1700823733348091100,4.515091064453125,-1.3708150386810303,-2.357980728149414,3.081022262573242
1700823733358008600,4.525008544921875,-1.8783342838287354,0.12444186210632324,4.648327827453613
1700823733367953200,4.534953125,-1.0058984756469727,0.41734910011291504,3.2687530517578125
1700823733377933000,4.54493310546875,-0.3433590531349182,0.36082911491394043,1.0074462890625
1700823733387911200,4.5549111328125,0.4765986502170563,0.7136690616607666,-0.4306163787841797
1700823733397919500,4.56491943359375,1.1548919677734375,1.1276345252990723,-1.5163798332214355
1700823733407973400,4.574973388671875,0.7266550064086914,0.9218788146972656,-2.5383448600769043
1700823733417995500,4.58499560546875,0.2837514281272888,0.4123342037200928,-3.755833625793457
1700823733428024800,4.59502490234375,-0.337932288646698,-0.45052123069763184,-0.44141674041748047
1700823733438154500,4.605154541015625,-0.5081575512886047,-0.03248882293701172,1.306497573852539
1700823733448058600,4.61505859375,-0.5087350010871887,0.06738114356994629,2.0270986557006836
1700823733457996800,4.624996826171875,-1.291683554649353,-0.539952278137207,0.7500953674316406
1700823733468002300,4.635002197265625,-0.9652600288391113,-0.027524471282958984,1.0576000213623047
1700823733478076700,4.64507666015625,-0.19825643301010132,0.5281927585601807,1.072371482849121
1700823733488019500,4.65501953125,0.32467204332351685,1.2234129905700684,1.2421598434448242
1700823733497980700,4.664980712890625,-0.3480404019355774,1.023240327835083,0.9235639572143555
1700823733507914200,4.674914306640625,0.13332414627075195,0.5017786026000977,-0.2441844940185547
1700823733517915600,4.68491552734375,-0.2920830249786377,-0.2659749984741211,-0.6801586151123047
1700823733527940400,4.6949404296875,0.30357176065444946,-1.2743415832519531,-1.0261821746826172
1700823733537952800,4.704952880859375,0.3083047866821289,-1.7964353561401367,-1.0052242279052734
1700823733547956200,4.714956298828125,-0.41419386863708496,-1.7664823532104492,-0.47083091735839844
1700823733557938700,4.724938720703125,-0.33723902702331543,-2.429666519165039,3.0436487197875977
1700823733568054800,4.7350546875,-1.6191099882125854,-1.3884506225585938,2.1626663208007812
1700823733578215000,4.74521484375,-1.1221164464950562,0.15674781799316406,0.2827463150024414
1700823733588081000,4.755080810546875,-0.5942925214767456,0.45821094512939453,0.07433414459228516
1700823733597991000,4.764990966796875,-0.20795226097106934,0.2883615493774414,-0.4278249740600586
1700823733608012500,4.775012451171875,0.29213786125183105,0.33317089080810547,0.048095703125
1700823733617951700,4.78495166015625,-0.47455382347106934,0.13942432403564453,-0.4226570129394531
1700823733627920000,4.794919921875,-0.6438313722610474,0.057431697845458984,-0.9141373634338379
1700823733637906000,4.804906005859375,-0.184759259223938,-0.25426340103149414,-1.4168825149536133
1700823733647886000,4.814885986328125,0.5476818084716797,-0.7260303497314453,-0.9258561134338379
1700823733657922600,4.824922607421875,0.2897583246231079,-0.8884797096252441,-0.006595611572265625
1700823733667959300,4.834959228515625,0.17619764804840088,-0.9011526107788086,0.7942962646484375
1700823733677941200,4.844941162109375,0.1775151491165161,-0.9269213676452637,0.8979034423828125
1700823733687931600,4.854931640625,-0.5252561569213867,-1.45867919921875,0.8306188583374023
1700823733698036200,4.8650361328125,-0.42027997970581055,-1.045363426208496,0.40674495697021484
1700823733708045600,4.875045654296875,-0.3479428291320801,-1.3243179321289062,-0.6142606735229492
1700823733717988400,4.88498828125,0.153639554977417,-1.0901274681091309,-0.4802532196044922
1700823733727995600,4.89499560546875,-0.008916139602661133,-1.4222044944763184,-0.13550949096679688
1700823733737999400,4.904999267578125,-0.8446652889251709,-0.9205646514892578,1.7616033554077148
1700823733748058600,4.91505859375,-1.8594849109649658,0.09689569473266602,3.382866859436035
1700823733758079200,4.925079345703125,-1.7413091659545898,0.3932337760925293,3.753607749938965
1700823733768019200,4.935019287109375,-1.421891689300537,0.07896137237548828,3.3264455795288086
1700823733777974500,4.944974609375,-0.38631272315979004,-0.673041820526123,-1.4948701858520508
1700823733787954700,4.95495458984375,3.683466911315918,0.8033437728881836,-6.083736419677734
1700823733797976300,4.964976318359375,3.2300784587860107,1.070793628692627,-4.830674648284912
1700823733807979300,4.974979248046875,-0.1492478847503662,1.2425012588500977,-1.645726203918457
1700823733818018600,4.9850185546875,-0.27684450149536133,0.7177884578704834,-1.33543062210083
1700823733828041700,4.995041748046875,0.5804271697998047,-0.1252584457397461,-1.3351259231567383
1700823733838038300,5.005038330078125,0.9973987936973572,-1.4389033317565918,-0.6057968139648438
1700823733847987200,5.0149873046875,0.34688854217529297,-0.9070110321044922,0.9132156372070312
1700823733858316000,5.02531591796875,-1.6492369174957275,1.3125360012054443,0.014994621276855469
1700823733868126500,5.03512646484375,-0.07121562957763672,0.6624894142150879,-1.2381224632263184
1700823733878056200,5.04505615234375,-0.19315612316131592,0.6129322052001953,-0.2605142593383789
1700823733888009200,5.05500927734375,0.08209967613220215,0.263671875,0.4382791519165039
1700823733897977000,5.06497705078125,-0.40145862102508545,-0.7550158500671387,0.03284454345703125
1700823733907952000,5.0749521484375,-0.8599209785461426,-1.4283366203308105,-0.2615642547607422
1700823733918472400,5.085472412109375,-0.5361700057983398,-1.3099579811096191,-0.052155494689941406
1700823733928245800,5.095245849609375,0.17264676094055176,-0.9814949035644531,0.054121971130371094
1700823733938075000,5.105074951171875,0.3340768814086914,-1.0612432956695557,-0.10942363739013672
1700823733948022500,5.1150224609375,-0.06013619899749756,-0.5961744785308838,0.054958343505859375
1700823733958048800,5.125048828125,0.16890621185302734,-0.42023181915283203,-0.07704734802246094
1700823733968000300,5.135000244140625,0.13347041606903076,-0.6562900543212891,-0.15670394897460938
1700823733977983700,5.144983642578125,-0.0075179338455200195,-0.4640066623687744,0.14403533935546875
1700823733987969800,5.1549697265625,-0.45750439167022705,-0.024248838424682617,-0.7298030853271484
1700823733997958000,5.1649580078125,-0.6799591779708862,0.416548490524292,-0.5448131561279297
1700823734007937000,5.17493701171875,0.2732428312301636,-0.40155887603759766,0.024161338806152344
1700823734017943600,5.184943603515625,0.15684592723846436,-0.5123019218444824,0.3182992935180664
1700823734027957800,5.194957763671875,-0.32829582691192627,0.25048160552978516,-0.02922344207763672
1700823734037963300,5.20496337890625,-0.14980578422546387,0.7694921493530273,-0.6386728286743164
1700823734047968300,5.21496826171875,-0.013866066932678223,0.5594005584716797,-1.7431788444519043
1700823734057955000,5.224955078125,0.369387149810791,0.0221099853515625,-1.77421236038208
1700823734067962000,5.234962158203125,0.7386736869812012,0.1642453670501709,-0.39378929138183594
1700823734078050600,5.245050537109375,0.49937689304351807,0.1111900806427002,1.329289436340332
1700823734088018700,5.255018798828125,-0.11729955673217773,-0.8007526397705078,0.8253097534179688
1700823734098367000,5.265366943359375,0.242334246635437,-1.305466651916504,0.7273359298706055
1700823734108184800,5.275184814453125,0.17726588249206543,-0.758338451385498,0.8547143936157227
1700823734118063900,5.28506396484375,-0.008848190307617188,-0.37830305099487305,0.6423864364624023
1700823734127972000,5.29497216796875,0.24674534797668457,0.018589019775390625,-0.05991649627685547
1700823734137929500,5.304929443359375,0.6696701049804688,0.21347808837890625,-1.1049628257751465
1700823734148103700,5.315103759765625,0.7268438339233398,-0.08122634887695312,-2.1446590423583984
1700823734158125300,5.325125244140625,1.8421528339385986,-0.6030192375183105,-2.3511128425598145
1700823734168037000,5.335037109375,1.4480589628219604,-1.116285800933838,-2.71065616607666
1700823734178183200,5.34518310546875,0.24683678150177002,-0.8150448799133301,-1.5363407135009766
1700823734188099600,5.355099609375,-0.7714666128158569,0.018032550811767578,0.8134965896606445
1700823734198014200,5.36501416015625,-1.0191067457199097,0.3331427574157715,2.346095085144043
1700823734208267500,5.375267578125,-1.7578411102294922,0.11819839477539062,3.0119800567626953
1700823734218229800,5.385229736328125,-1.4742026329040527,-0.20943737030029297,2.8991661071777344
1700823734228115000,5.395114990234375,-1.250126600265503,-1.0935111045837402,1.5680532455444336
1700823734238142000,5.405141845703125,-0.9849990010261536,-1.0219368934631348,0.8386116027832031
1700823734248191500,5.41519140625,0.7898609638214111,-0.16985273361206055,0.06526851654052734
1700823734258120700,5.42512060546875,1.3297734260559082,0.2710394859313965,-0.8426022529602051
1700823734268069400,5.4350693359375,1.407372236251831,-0.21673583984375,-1.3446803092956543
1700823734278022700,5.445022705078125,0.804351270198822,-0.8811559677124023,-1.5464496612548828
1700823734288030500,5.455030517578125,0.12292170524597168,-2.064025402069092,-2.67376708984375
1700823734298023200,5.465023193359375,-0.8401520848274231,-1.948214054107666,-1.4613194465637207
1700823734308076500,5.47507666015625,-0.9453186988830566,-1.1486663818359375,-0.7528729438781738
1700823734318068700,5.48506884765625,-0.06973212957382202,-0.3758201599121094,-0.8995137214660645
1700823734328054000,5.495053955078125,0.9489390850067139,-0.6399321556091309,-3.849112033843994
1700823734338044000,5.5050439453125,1.5133603811264038,0.5811257362365723,-3.7549185752868652
1700823734348042500,5.51504248046875,1.386178731918335,1.7845189571380615,5.158661842346191
1700823734358193200,5.525193115234375,-2.320821523666382,-0.2514643669128418,1.666396141052246
1700823734368088600,5.535088623046875,-1.9244694709777832,0.03260946273803711,2.53128719329834
1700823734378038800,5.545038818359375,-0.06352293491363525,0.9618816375732422,2.451936721801758
1700823734388028400,5.5550283203125,-0.11618256568908691,0.9700932502746582,0.9925107955932617
1700823734398059800,5.565059814453125,0.07894623279571533,1.3830986022949219,-0.8007659912109375
1700823734408380400,5.57538037109375,0.8700966835021973,2.276526689529419,-1.6028218269348145
1700823734418199600,5.585199462890625,0.40991753339767456,2.1830782890319824,-2.02662992477417
1700823734428117800,5.59511767578125,-0.25410985946655273,1.8917286396026611,-1.3446025848388672
1700823734438033400,5.605033447265625,0.4260484576225281,2.196349620819092,0.8133420944213867
1700823734448027100,5.615027099609375,-0.18066823482513428,2.6519923210144043,3.165642738342285
1700823734458047000,5.625046875,-1.905611515045166,4.950016021728516,5.370708465576172
1700823734468105000,5.63510498046875,-1.6504287719726562,4.186995506286621,3.7175941467285156
1700823734478165000,5.6451650390625,-0.7565752863883972,2.758549690246582,0.6113672256469727
1700823734488164600,5.65516455078125,0.27757805585861206,2.4527859687805176,-0.11083030700683594
1700823734498087700,5.665087646484375,0.7989880442619324,2.058006525039673,-0.03845691680908203
1700823734508249900,5.675249755859375,0.2804752290248871,1.3917186260223389,-0.25515174865722656
1700823734518090000,5.685090087890625,0.7442875504493713,-0.6037979125976562,-1.2886195182800293
1700823734528033000,5.695032958984375,0.10865557193756104,-2.1133761405944824,-1.5611424446105957
1700823734538084600,5.705084716796875,-0.09219685196876526,-1.3125767707824707,1.1782207489013672
1700823734548063200,5.715063232421875,-0.5683914422988892,0.11397027969360352,4.174813270568848
1700823734558179000,5.725178955078125,-5.230811595916748,-2.4821457862854004,0.5980310440063477
1700823734568090600,5.735090576171875,-2.2222397327423096,-6.735670566558838,-5.257778167724609
1700823734578165200,5.745165283203125,2.425840377807617,-8.01878547668457,-7.740234375
1700823734588237600,5.755237548828125,3.67403507232666,-6.17426061630249,-6.052680015563965
1700823734598258000,5.7652578125,2.0939512252807617,-3.5798778533935547,-2.717085361480713
1700823734608119300,5.775119384765625,-0.8134474158287048,-1.702239990234375,0.6485767364501953
1700823734618142200,5.78514208984375,-1.6586958169937134,-1.185124397277832,2.063872814178467
1700823734628081700,5.79508154296875,1.3794341087341309,-0.5469059944152832,3.138881206512451
1700823734638069800,5.80506982421875,2.5990002155303955,-0.13574934005737305,3.7045202255249023
1700823734648045800,5.8150458984375,0.8252306580543518,-1.9059815406799316,1.1452879905700684
1700823734658033400,5.825033447265625,0.6427725553512573,-3.7579054832458496,-0.4058375358581543
1700823734668024300,5.8350244140625,-0.2708438038825989,-2.9178390502929688,1.7139816284179688
1700823734678045200,5.845045166015625,-0.6171258091926575,-1.5402183532714844,2.8396053314208984
1700823734688068000,5.855068115234375,2.282999277114868,-0.24521732330322266,3.059235095977783
1700823734698066400,5.86506640625,2.5061850547790527,0.6300678253173828,0.5041637420654297
1700823734708081200,5.8750810546875,-0.5553499460220337,1.172111988067627,-1.9719924926757812
1700823734718054100,5.88505419921875,-2.247713327407837,3.627981424331665,-2.6053805351257324
1700823734728050200,5.89505029296875,-2.0934269428253174,5.497115135192871,-1.3563652038574219
1700823734738066400,5.90506640625,-1.3414255380630493,5.665769577026367,0.9769859313964844
1700823734747992300,5.914992431640625,-1.298675298690796,1.7845683097839355,-0.6484155654907227
1700823734758179600,5.9251796875,-1.5033038854599,0.0998086929321289,-1.0866422653198242
1700823734768094700,5.9350947265625,-0.5494545102119446,0.10160493850708008,-0.34100961685180664
1700823734778052400,5.94505224609375,0.56068354845047,0.04653358459472656,-0.4698514938354492
1700823734787953700,5.95495361328125,0.07829612493515015,-0.5908317565917969,-0.4489712715148926
1700823734797921800,5.964921875,0.2449965476989746,-0.7497124671936035,-0.2867898941040039
1700823734807881000,5.974880859375,0.37380141019821167,-0.6258707046508789,-0.0711970329284668
1700823734817883400,5.98488330078125,0.23375123739242554,-0.48024749755859375,-0.04067087173461914
1700823734827989800,5.99498974609375,0.12219132483005524,-0.38332271575927734,-0.0020360946655273438
1700823734837968000,6.0049677734375,0.2126188576221466,-0.3432493209838867,-0.012331008911132812
1700823734847924500,6.014924560546875,-0.0018253177404403687,-0.29131317138671875,-0.2207794189453125
1700823734857946000,6.024946044921875,-0.43389034271240234,-0.21154165267944336,-0.3557448387145996
1700823734867914500,6.03491455078125,-0.417428195476532,-0.15570735931396484,-0.39901018142700195
1700823734877921800,6.044921875,-0.3405669927597046,-0.15761089324951172,-0.3043837547302246
1700823734888001800,6.055001708984375,-0.22284510731697083,-0.31920289993286133,-0.13052606582641602
1700823734897973500,6.064973388671875,-0.12014281004667282,-0.5357451438903809,0.16776609420776367
1700823734908312800,6.075312744140625,0.15538793802261353,-0.7206916809082031,0.36023426055908203
1700823734919052800,6.086052734375,0.43641674518585205,-0.727811336517334,0.2858004570007324
1700823734928513500,6.095513427734375,0.4744897782802582,-0.5642962455749512,0.09307241439819336
1700823734938237700,6.10523779296875,0.25791966915130615,-0.3740692138671875,-0.10564422607421875
1700823734948101400,6.115101318359375,0.08082729578018188,-0.1912550926208496,-0.32438039779663086
1700823734958031000,6.125031005859375,-0.1126377135515213,-0.08807849884033203,-0.49338293075561523
1700823734967981600,6.134981689453125,-0.28243526816368103,0.006756782531738281,-0.4710731506347656
1700823734977985800,6.14498583984375,-0.10581669211387634,0.0656895637512207,-0.13792705535888672
1700823734987957500,6.15495751953125,0.01622873544692993,0.03092813491821289,-0.05072307586669922
1700823734998088700,6.165088623046875,0.3053239583969116,0.5647492408752441,-0.37070178985595703
1700823735008070400,6.1750703125,0.4427212178707123,0.41615724563598633,-0.7126193046569824
1700823735018059300,6.185059326171875,-0.2879417836666107,0.2105116844177246,-0.27723073959350586
1700823735028122600,6.19512255859375,-0.16262859106063843,0.986515998840332,-0.2717733383178711
1700823735038064400,6.205064453125,0.37242037057876587,2.365203380584717,-0.1355900764465332
1700823735048129500,6.215129638671875,0.8637636303901672,2.5478076934814453,0.35994625091552734
1700823735058026800,6.22502685546875,0.39806246757507324,0.4610929489135742,0.5159282684326172
1700823735068001500,6.23500146484375,-0.6267519593238831,-1.0957627296447754,0.7603549957275391
1700823735078357800,6.245357666015625,0.2559942603111267,-1.7878518104553223,1.107553482055664
1700823735088122400,6.255122314453125,0.7492942214012146,-0.9684147834777832,1.4319186210632324
1700823735098034200,6.2650341796875,-0.4750332832336426,1.273521900177002,1.3570313453674316
1700823735108018700,6.275018798828125,-1.3428195714950562,3.2238354682922363,1.7166762351989746
1700823735117980000,6.28497998046875,-1.4971747398376465,2.8971970081329346,1.9235267639160156
1700823735127959300,6.294959228515625,-1.6327730417251587,0.10691356658935547,0.9210319519042969
1700823735137961700,6.304961669921875,-0.02712942846119404,-1.5172510147094727,0.21768999099731445
1700823735147963000,6.314962890625,1.3456438779830933,-2.8534231185913086,-0.9596409797668457
1700823735157935900,6.324935791015625,1.5404893159866333,-2.572085380554199,-1.3188624382019043
1700823735167954400,6.334954345703125,1.664184331893921,-0.9564948081970215,-0.9308314323425293
1700823735177960700,6.344960693359375,0.7523964047431946,1.2577919960021973,-0.08341836929321289
1700823735187978200,6.354978271484375,-1.1770490407943726,3.330023765563965,0.5024576187133789
1700823735197935600,6.364935546875,-1.4685900211334229,4.4910430908203125,0.2810497283935547
1700823735207956700,6.374956787109375,-0.9420313835144043,5.466920375823975,0.47322654724121094
1700823735217969000,6.384968994140625,-1.5382745265960693,4.308833122253418,0.11342906951904297
1700823735227975400,6.394975341796875,-0.381799578666687,1.986314296722412,-0.37596654891967773
1700823735237983700,6.404983642578125,0.5606219172477722,-1.1414484977722168,-0.8530206680297852
1700823735248027400,6.41502734375,2.584984302520752,-3.028498649597168,-0.6983075141906738
1700823735258013700,6.425013671875,4.845666885375977,-2.428161144256592,0.2579784393310547
1700823735267989800,6.43498974609375,2.5011022090911865,-1.6907563209533691,0.5333719253540039
1700823735278050800,6.44505078125,0.2314119040966034,-0.9572830200195312,0.5282983779907227
1700823735287998500,6.45499853515625,-0.8470719456672668,0.3831186294555664,0.933110237121582
1700823735297971200,6.46497119140625,-0.22273896634578705,-0.23643159866333008,0.6847620010375977
1700823735307958000,6.4749580078125,0.16903603076934814,-0.7422761917114258,0.3826780319213867
1700823735317945600,6.484945556640625,-0.4701128304004669,-0.5881071090698242,0.41916847229003906
1700823735327955700,6.494955810546875,-0.9634804725646973,0.2889256477355957,0.7860136032104492
1700823735337951000,6.504950927734375,0.40741926431655884,0.2838172912597656,0.25691890716552734
1700823735347959000,6.514958984375,1.903192400932312,0.3457798957824707,-0.1701202392578125
1700823735358041900,6.525041748046875,1.8463120460510254,0.49181509017944336,-0.2328357696533203
1700823735368033500,6.535033447265625,0.9166958928108215,-0.0037169456481933594,0.15529537200927734
1700823735378047700,6.5450478515625,-0.4554795026779175,-1.008542537689209,0.577214241027832
1700823735388065800,6.555065673828125,-1.4474313259124756,-1.360494613647461,0.8748502731323242
1700823735398047000,6.565046875,-2.0470306873321533,-1.8002667427062988,-0.12519264221191406
1700823735408052500,6.575052490234375,-1.7492262125015259,-1.5431156158447266,-1.9234437942504883
1700823735418023200,6.585023193359375,-1.4639638662338257,-0.05856466293334961,-2.3437438011169434
1700823735428201700,6.59520166015625,-1.6260578632354736,1.8734471797943115,-1.4157614707946777
1700823735438099200,6.60509912109375,-2.341298818588257,2.706813097000122,-0.4771304130554199
1700823735448110000,6.615110107421875,-3.2320902347564697,3.881178379058838,0.9907255172729492
1700823735458083000,6.6250830078125,-4.50814151763916,1.119563102722168,1.440913200378418
1700823735468095500,6.635095458984375,1.0445055961608887,-5.570871829986572,0.45674896240234375
1700823735478095400,6.645095458984375,4.09084415435791,1.8949317932128906,3.669562339782715
1700823735487980000,6.65497998046875,-3.9093494415283203,0.9639797210693359,1.6093406677246094
1700823735497975600,6.6649755859375,-4.961460590362549,-1.5497474670410156,-0.7375349998474121
1700823735507937300,6.674937255859375,-1.6351464986801147,-2.631561756134033,-2.174274444580078
1700823735517940200,6.684940185546875,0.47843629121780396,-3.479261875152588,-2.5195860862731934
1700823735527930000,6.69493017578125,2.8451573848724365,-4.210880756378174,-2.5263962745666504
1700823735537981000,6.70498095703125,6.71701717376709,-1.6582565307617188,-0.43238353729248047
1700823735547919600,6.714919677734375,8.017168998718262,0.42304420471191406,2.3875179290771484
1700823735557918700,6.724918701171875,4.439645290374756,0.9092845916748047,2.654703140258789
1700823735567875300,6.734875244140625,1.06718111038208,1.5342276096343994,1.41815185546875
1700823735577874700,6.744874755859375,-0.5592639446258545,1.1652240753173828,-0.08636665344238281
1700823735587879400,6.75487939453125,-1.23017156124115,0.28188514709472656,-0.8536105155944824
1700823735597874200,6.764874267578125,0.12025141716003418,0.8818690776824951,0.36954784393310547
1700823735607861500,6.774861572265625,0.24992698431015015,0.8788242340087891,1.2216691970825195
1700823735617906000,6.784906005859375,1.5062731504440308,0.46889448165893555,0.8690958023071289
1700823735627884300,6.79488427734375,1.0574811697006226,-0.49130821228027344,0.5609636306762695
1700823735637885700,6.8048857421875,0.0015352368354797363,-1.535355567932129,0.3942403793334961
1700823735648135000,6.815135009765625,-0.4451696276664734,-2.6601481437683105,-0.15775680541992188
1700823735658027500,6.825027587890625,-1.5356659889221191,-2.6119260787963867,-0.39227867126464844
1700823735667968800,6.83496875,-1.1897032260894775,-1.0386085510253906,-0.4376640319824219
1700823735677927000,6.844927001953125,-0.6660979986190796,0.09418344497680664,-0.4471902847290039
1700823735687895800,6.854895751953125,-0.29222649335861206,1.4226188659667969,-0.2419452667236328
1700823735697927000,6.864927001953125,0.1339564323425293,2.2978930473327637,-0.0943450927734375
1700823735708994600,6.87599462890625,0.7807897329330444,1.7153937816619873,-0.4000825881958008
1700823735718456800,6.885456787109375,1.0090383291244507,1.2386608123779297,-0.2914924621582031
1700823735728153300,6.8951533203125,0.18505385518074036,-0.38828086853027344,-0.3460855484008789
1700823735738066700,6.905066650390625,0.4131982624530792,-1.8432226181030273,-0.17136859893798828
1700823735747977200,6.914977294921875,0.008425652980804443,-2.5094990730285645,0.16498374938964844
1700823735757945000,6.924945068359375,-1.2294528484344482,-1.9937682151794434,0.7773809432983398
1700823735767939000,6.93493896484375,-1.6548576354980469,-1.0374984741210938,1.3365373611450195
1700823735777961500,6.94496142578125,-1.4455065727233887,-0.524569034576416,1.3229084014892578
1700823735787936300,6.954936279296875,-1.35129714012146,-1.1318731307983398,-0.06887531280517578
1700823735797983200,6.964983154296875,0.26649367809295654,-2.6571884155273438,-1.7469134330749512
1700823735808131600,6.975131591796875,0.26203590631484985,-3.5892882347106934,-1.7942614555358887
1700823735818007800,6.9850078125,0.16340124607086182,-3.695812225341797,-1.0526752471923828
1700823735827931400,6.994931396484375,1.1640336513519287,-2.8631486892700195,-0.0879974365234375
1700823735837902600,7.004902587890625,3.155759811401367,-2.6027989387512207,0.2182607650756836
1700823735847929900,7.014929931640625,3.4925289154052734,-1.3241753578186035,0.8824930191040039
1700823735857910000,7.024909912109375,1.4739185571670532,0.2570972442626953,1.4152021408081055
1700823735867865300,7.034865234375,-0.5949333906173706,0.9297475814819336,1.604217529296875
1700823735877842200,7.04484228515625,0.4694571793079376,2.0535900592803955,1.9781274795532227
1700823735887859200,7.054859130859375,3.0735323429107666,5.907915115356445,3.210538864135742
1700823735897923000,7.064923095703125,0.7014876008033752,7.06214714050293,2.9683027267456055
1700823735907885600,7.074885498046875,-4.820204734802246,0.2581348419189453,-2.626054286956787
1700823735917898800,7.084898681640625,-5.44387149810791,0.02503204345703125,-2.2859864234924316
1700823735927937800,7.094937744140625,-2.104600191116333,0.578096866607666,-0.8315372467041016
1700823735938015500,7.105015380859375,1.132790207862854,0.8544044494628906,0.4383559226989746
1700823735947994600,7.11499462890625,2.5418179035186768,0.28681039810180664,0.2517733573913574
1700823735957982500,7.124982421875,0.34032297134399414,-0.633814811706543,-0.8079643249511719
1700823735967920000,7.134920166015625,-0.7522726058959961,-0.13523483276367188,-0.8370447158813477
1700823735977966000,7.144966064453125,-0.9635503888130188,0.3899655342102051,-0.09964179992675781
1700823735988005000,7.155005126953125,-0.47490033507347107,0.9696879386901855,0.8359899520874023
1700823735997997600,7.16499755859375,0.22048161923885345,1.0974974632263184,1.3470673561096191
1700823736008011300,7.17501123046875,0.6647684574127197,0.8759260177612305,1.2331819534301758
1700823736017954600,7.18495458984375,0.7254477739334106,0.7364025115966797,0.8148117065429688
1700823736027949300,7.19494921875,-0.08561617136001587,0.04844045639038086,0.09005165100097656
1700823736037973800,7.204973876953125,-0.36904895305633545,0.01584625244140625,0.10088014602661133
1700823736047980800,7.214980712890625,-0.15830779075622559,0.086669921875,0.4311065673828125
1700823736057995000,7.2249951171875,0.3646640479564667,-0.2547492980957031,0.4603261947631836
1700823736068088600,7.235088623046875,0.3174111843109131,-0.3476853370666504,0.5133090019226074
1700823736078034700,7.24503466796875,0.09274017810821533,-0.15468788146972656,0.7320947647094727
1700823736088006000,7.255005859375,-0.1660310924053192,-0.10230064392089844,0.5639028549194336
1700823736097973000,7.264972900390625,0.8974578976631165,4.969040870666504,1.6253557205200195
1700823736108228400,7.275228271484375,2.7755441665649414,1.4941320419311523,-1.8427424430847168
1700823736118054100,7.28505419921875,-1.1877493858337402,-1.3060364723205566,-1.0762739181518555
1700823736128026600,7.295026611328125,-3.170586585998535,-2.453256607055664,-0.4400768280029297
1700823736138013200,7.30501318359375,-2.02890944480896,-0.7424931526184082,1.225757122039795
1700823736148008700,7.3150087890625,2.692467212677002,0.21665430068969727,1.055305004119873
1700823736158001000,7.3250009765625,2.686608076095581,0.39014530181884766,0.2401447296142578
1700823736167935500,7.334935546875,0.5277491807937622,1.7560596466064453,-0.18323326110839844
1700823736177948700,7.34494873046875,-2.6762118339538574,1.9756295680999756,-0.10266494750976562
1700823736187955500,7.35495556640625,-3.583021640777588,1.9760582447052002,-0.013844966888427734
1700823736197963800,7.3649638671875,-2.5116286277770996,0.71099853515625,-0.021844863891601562
1700823736207997000,7.374996826171875,-0.5653485655784607,-2.241211414337158,-0.6161675453186035
1700823736217951500,7.384951416015625,3.4456024169921875,-4.275574207305908,0.9909143447875977
1700823736227904300,7.394904296875,1.729928731918335,-3.7168445587158203,0.10574722290039062
1700823736237941500,7.40494140625,1.2037320137023926,-1.2816553115844727,0.5463719367980957
1700823736247955200,7.414955078125,1.5381064414978027,0.4934711456298828,0.6739311218261719
1700823736257987600,7.424987548828125,-0.04505068063735962,0.9132323265075684,-0.0851292610168457
1700823736267939300,7.434939208984375,0.25080060958862305,1.5457663536071777,0.02320384979248047
1700823736277983700,7.444983642578125,-0.3210980296134949,2.1158761978149414,0.20348644256591797
1700823736288001800,7.455001708984375,-0.3709720969200134,2.546595335006714,0.12371063232421875
1700823736298007300,7.46500732421875,-0.3360936641693115,2.0875978469848633,-0.22153759002685547
1700823736308367600,7.47536767578125,-0.9044041633605957,1.2553348541259766,-0.6943235397338867
1700823736318134800,7.485134765625,-0.7110851407051086,0.2687349319458008,-0.42252349853515625
1700823736328053500,7.495053466796875,0.3818655014038086,-0.06956100463867188,0.8725705146789551
1700823736338014700,7.5050146484375,0.7218077182769775,-0.487607479095459,1.1441125869750977
1700823736347989800,7.51498974609375,-0.43134403228759766,-0.12366628646850586,0.5639915466308594
1700823736358001400,7.52500146484375,-1.1335214376449585,0.6092071533203125,-0.4568901062011719
1700823736367967700,7.5349677734375,-0.3519546389579773,0.8328709602355957,-0.6489725112915039
1700823736377995300,7.544995361328125,0.6184730529785156,0.47501707077026367,-0.32755136489868164
1700823736387999700,7.554999755859375,1.4006233215332031,-0.31532764434814453,0.4635744094848633
1700823736397958400,7.56495849609375,1.0410268306732178,-0.9773540496826172,0.9846539497375488
1700823736407958300,7.574958251953125,0.24958035349845886,-1.1140937805175781,0.7328524589538574
1700823736417955000,7.584955078125,-0.7439718246459961,-0.19195985794067383,0.9414944648742676
1700823736427940600,7.594940673828125,-0.6222667694091797,0.5231733322143555,0.4194979667663574
1700823736437943300,7.604943359375,0.6569200754165649,0.9073238372802734,0.1712188720703125
1700823736447898000,7.614898193359375,2.411543369293213,2.7914929389953613,0.14498329162597656
1700823736457911600,7.62491162109375,2.0660648345947266,4.16709566116333,0.029105186462402344
1700823736467917800,7.634917724609375,-0.40813231468200684,5.794926643371582,1.9304051399230957
1700823736477956900,7.644956787109375,-2.0568835735321045,4.630123138427734,1.783252239227295
1700823736487983400,7.6549833984375,-1.8308383226394653,0.7654857635498047,0.16353940963745117
1700823736497982700,7.664982666015625,0.6393417716026306,-3.6438870429992676,-1.701481819152832
1700823736507993900,7.674993896484375,3.033320665359497,-5.305981636047363,-1.790083885192871
1700823736518005000,7.6850048828125,2.3483359813690186,-2.982142925262451,0.5370588302612305
1700823736528002000,7.695001953125,-1.0522546768188477,1.5769751071929932,2.6109657287597656
1700823736538014000,7.705013916015625,-0.7183594703674316,2.8046884536743164,2.7355031967163086
1700823736548011000,7.715010986328125,-1.2913861274719238,3.529355525970459,2.788691520690918
1700823736557997600,7.72499755859375,-0.9781809449195862,3.045353889465332,1.6862201690673828
1700823736568156200,7.73515625,-0.15169504284858704,2.131385564804077,0.2581758499145508
1700823736578123500,7.74512353515625,1.2237913608551025,0.30761146545410156,-0.8051528930664062
1700823736587998200,7.754998291015625,1.1705883741378784,2.553187370300293,2.454043388366699
1700823736597984800,7.76498486328125,-2.734107494354248,-0.2672915458679199,3.4299068450927734
1700823736607992800,7.774992919921875,6.70884895324707,-1.7085156440734863,2.1712989807128906
1700823736617994000,7.784993896484375,5.813625812530518,-1.6019415855407715,1.5831184387207031
1700823736628003800,7.79500390625,3.009347915649414,-1.362299919128418,1.3901691436767578
1700823736637987000,7.804987060546875,0.3142698109149933,-0.8930561542510986,0.12171173095703125
1700823736647949600,7.814949462890625,-1.9571669101715088,-1.8282537460327148,-2.8037242889404297
1700823736657977900,7.824977783203125,-2.961638927459717,-3.485131025314331,-5.31603479385376
1700823736667998500,7.83499853515625,-3.8051350116729736,-3.186438798904419,-5.735121726989746
1700823736678006800,7.8450068359375,-5.101329803466797,-1.7985763549804688,-5.208017349243164
1700823736688011800,7.85501171875,-4.607019901275635,-0.5744898319244385,-4.037587642669678
1700823736697964500,7.864964599609375,-3.3487277030944824,1.086321234703064,-1.9592061042785645
1700823736707969300,7.87496923828125,-0.9339995384216309,1.0921680927276611,-0.38553619384765625
1700823736718010000,7.885010009765625,0.7891549468040466,0.3830244541168213,0.900238037109375
1700823736727959000,7.894958984375,2.177504301071167,0.333101749420166,1.8650398254394531
1700823736737969400,7.904969482421875,3.0881762504577637,0.42870664596557617,1.7783422470092773
1700823736747924200,7.91492431640625,3.028012752532959,0.70758056640625,1.3465566635131836
1700823736757990700,7.92499072265625,2.2313191890716553,0.5984647274017334,0.8298845291137695
1700823736768019200,7.935019287109375,0.058466970920562744,0.46856045722961426,0.736750602722168
1700823736778015200,7.94501513671875,-2.6854591369628906,0.6262409687042236,0.7659626007080078
1700823736788009000,7.955009033203125,-3.809145212173462,0.8273499011993408,0.4807920455932617
1700823736798091000,7.965091064453125,-3.492738962173462,-0.005805015563964844,-0.02497577667236328
1700823736808070400,7.9750703125,-2.094496250152588,-0.8836550712585449,-0.4688234329223633
1700823736818045200,7.985045166015625,-0.7808976173400879,-1.0777714252471924,0.06980609893798828
1700823736828391700,7.9953916015625,0.9109372496604919,-1.0635476112365723,1.067418098449707
1700823736838953200,8.005953125,2.6105377674102783,0.2937769889831543,2.106522560119629
1700823736848733700,8.015733642578125,1.5631779432296753,1.1403679847717285,2.0103063583374023
1700823736858329900,8.025329833984374,0.5690941214561462,2.1825475692749023,1.5896825790405273
1700823736868100900,8.035100830078125,-0.26343247294425964,2.5815234184265137,1.2395410537719727
1700823736878011000,8.045010986328125,-1.0377757549285889,1.5162179470062256,0.5940303802490234
1700823736887992000,8.054991943359376,-0.8891058564186096,-0.3750765323638916,-0.031226158142089844
1700823736897952500,8.064952392578125,1.7801964282989502,-1.6337344646453857,-0.7602214813232422
1700823736907900200,8.074900146484374,2.2079811096191406,-0.7804839611053467,-0.7774028778076172
1700823736917916200,8.084916259765626,1.3663307428359985,0.6447649002075195,-0.7826147079467773
1700823736927894500,8.09489453125,0.8027652502059937,0.6226565837860107,-1.1212234497070312
1700823736937905200,8.1049052734375,0.3241010904312134,0.7643325328826904,-1.3845629692077637
1700823736947997200,8.1149970703125,-1.3673162460327148,0.5852711200714111,-1.0266380310058594
1700823736957971000,8.124970947265625,-1.4295296669006348,0.17977046966552734,-0.6722917556762695
1700823736968223000,8.135222900390625,-1.1850275993347168,-0.10780620574951172,0.02610301971435547
1700823736978086100,8.145086181640625,-1.124078392982483,-0.8299660682678223,0.6340923309326172
1700823736988017400,8.155017333984375,-0.5757085084915161,-0.9518177509307861,1.433638572692871
1700823736997968000,8.1649677734375,0.510489284992218,-0.1562061309814453,2.469440460205078
1700823737007913500,8.17491357421875,1.9081292152404785,0.718071699142456,2.854607582092285
1700823737018016800,8.185016845703124,2.1230766773223877,1.2154282331466675,2.377009391784668
1700823737028049000,8.195048828125,1.335973858833313,0.6121509075164795,1.0927515029907227
1700823737037976800,8.204976806640625,1.472625970840454,-0.06360340118408203,-0.4593925476074219
1700823737047985000,8.21498486328125,2.603076696395874,-0.8770861625671387,-1.8211379051208496
1700823737057997600,8.22499755859375,2.5071492195129395,-0.21335983276367188,-1.8321404457092285
1700823737067940400,8.2349404296875,0.7293459177017212,0.3507387638092041,-0.8705453872680664
1700823737077955000,8.244955078125,-1.0849214792251587,1.7394742965698242,1.012984275817871
1700823737088018400,8.255018310546875,-1.7530062198638916,1.8108720779418945,2.7420129776000977
1700823737097993200,8.2649931640625,-1.3431215286254883,1.5767279863357544,3.8357534408569336
1700823737108188200,8.275188232421876,-0.8664035201072693,2.3951802253723145,3.9887990951538086
1700823737118028000,8.285028076171875,-1.235480785369873,2.247230291366577,3.1505422592163086
1700823737128050400,8.295050537109375,-1.1926616430282593,0.7332702875137329,1.61309814453125
1700823737138131700,8.305131591796876,0.32575851678848267,-0.6798582077026367,0.019166946411132812
1700823737148085000,8.3150849609375,0.6069890260696411,-0.4328422546386719,-2.335084915161133
1700823737157991400,8.324991455078125,0.0015118122100830078,0.6893855333328247,-1.9443535804748535
1700823737167990800,8.33499072265625,0.6226386427879333,0.9137252569198608,-1.0654373168945312
1700823737177964300,8.34496435546875,3.355304479598999,1.5762877464294434,0.4408245086669922
1700823737187922200,8.354922119140625,3.7068943977355957,0.9782892465591431,1.1053686141967773
1700823737197872600,8.36487255859375,2.0368456840515137,-0.25769317150115967,1.4580268859863281
1700823737208120800,8.375120849609376,-0.5366555452346802,-1.572325348854065,1.22991943359375
1700823737218031400,8.38503125,-2.32566499710083,-0.36408793926239014,1.0233430862426758
1700823737227942100,8.394942138671874,-1.9692740440368652,-1.4036701917648315,1.116471290588379
1700823737237953000,8.404953125,-1.9262161254882812,-1.385348916053772,0.9333953857421875
1700823737247886600,8.414886474609375,-1.145461082458496,-1.054290533065796,-0.20952701568603516
1700823737258015700,8.425015625,0.4223632216453552,-0.572289228439331,-0.5800762176513672
1700823737267929300,8.434929443359374,1.7478691339492798,0.6896517276763916,0.07199668884277344
1700823737277934600,8.4449345703125,1.9010629653930664,1.604828119277954,0.43564510345458984
1700823737289790700,8.456790771484375,1.8415675163269043,-0.04848814010620117,0.5890226364135742
1700823737298843400,8.465843505859375,1.1780215501785278,0.909295380115509,1.1872968673706055
1700823737308450300,8.4754501953125,0.6592888236045837,-0.803416907787323,1.2858037948608398
1700823737318183200,8.48518310546875,0.28492045402526855,-1.7287986278533936,1.2053775787353516
1700823737328001000,8.4950009765625,1.1035720109939575,-2.2538700103759766,0.4123859405517578
1700823737337969400,8.504969482421876,0.5648900270462036,-2.068878650665283,-1.0239439010620117
1700823737347896300,8.514896240234375,0.9086599349975586,-1.6102001667022705,-2.2363624572753906
1700823737357962800,8.524962646484376,0.8306978344917297,-0.6922318935394287,-2.2060279846191406
1700823737367969800,8.5349697265625,-0.35071897506713867,-0.8944145441055298,-2.193267822265625
1700823737377898500,8.5448984375,-0.11924338340759277,0.22070816159248352,-1.2699909210205078
1700823737387879200,8.554879150390626,0.49905937910079956,0.9867693781852722,-0.04646778106689453
1700823737397891600,8.5648916015625,0.4016770124435425,-1.267935872077942,0.11062812805175781
1700823737407868400,8.574868408203125,0.4222310185432434,1.1845866441726685,0.19728755950927734
1700823737417878500,8.58487841796875,1.0131421089172363,0.36467647552490234,1.3920669555664062
1700823737427865900,8.594865966796876,0.15077555179595947,0.05725187063217163,1.9546537399291992
1700823737437977300,8.604977294921875,0.27162879705429077,-0.6925447583198547,0.796442985534668
1700823737447923700,8.614923828125,0.7422894239425659,-1.2097492218017578,-1.6849937438964844
1700823737458365400,8.625365478515626,1.4279816150665283,-2.140873670578003,-4.460859298706055
1700823737468185600,8.635185546875,0.3794114291667938,-2.2516448497772217,-3.124112606048584
1700823737478121000,8.645120849609375,-0.5641034841537476,-3.809021472930908,-1.379033088684082
1700823737488088300,8.65508837890625,-0.14921951293945312,-3.644562005996704,-1.3783721923828125
1700823737499196200,8.666196044921875,-0.03626134991645813,-2.126744270324707,-3.0759806632995605
1700823737509349000,8.67634912109375,-0.9744236469268799,-1.9108855724334717,-4.203758716583252
1700823737518641700,8.6856416015625,1.3128471374511719,-1.4016242027282715,-3.9654412269592285
1700823737528258300,8.69525830078125,1.0619807243347168,0.6075202226638794,-2.6268043518066406
1700823737538100200,8.705100341796875,1.0813556909561157,1.9903786182403564,-0.6903457641601562
1700823737548857000,8.715857177734375,0.023997828364372253,1.2185121774673462,1.0031547546386719
1700823737559268600,8.7262685546875,-6.39380407333374,0.396526038646698,2.7851028442382812
1700823737568559400,8.735559326171876,-4.951172828674316,-1.5603001117706299,2.427082061767578
1700823737578334200,8.745334228515626,-0.1226155161857605,-2.345252275466919,1.2792644500732422
1700823737588166700,8.755166748046875,1.5376145839691162,-2.4134340286254883,-0.21422767639160156
1700823737598022000,8.76502197265625,1.5913076400756836,-1.8513299226760864,-0.3363618850708008
1700823737607960800,8.7749609375,1.7028130292892456,-1.4731252193450928,-0.6063947677612305
1700823737617945300,8.7849453125,1.712877869606018,-1.2002321481704712,-0.8138980865478516
1700823737627934200,8.794934326171875,1.330918550491333,-0.8179910182952881,-0.3245124816894531
1700823737637948700,8.80494873046875,0.4857022762298584,-0.2381448745727539,0.6305255889892578
1700823737647913200,8.814913330078125,-1.9901841878890991,0.08710479736328125,1.538543701171875
1700823737658105600,8.825105712890625,-3.0612094402313232,-0.2943763732910156,2.0765762329101562
1700823737668018000,8.835017822265625,-2.1981592178344727,-1.0935091972351074,1.6492881774902344
1700823737678009300,8.84500927734375,-1.739683747291565,-0.7145788669586182,1.0687122344970703
1700823737688041200,8.855041259765626,-1.2309614419937134,-0.14413118362426758,0.8327445983886719
1700823737697994000,8.864993896484375,0.09351296722888947,-0.44811034202575684,0.31006717681884766
1700823737707986200,8.874986083984375,1.5712295770645142,0.01346445083618164,0.2618694305419922
1700823737717958100,8.884958251953124,2.771698474884033,1.4351544380187988,0.8292207717895508
1700823737727914500,8.89491455078125,4.081557273864746,1.960304856300354,1.3575267791748047
1700823737737918700,8.904918701171875,4.886257171630859,0.7604339122772217,1.5793895721435547
1700823737748020500,8.9150205078125,4.7228803634643555,-0.6037106513977051,1.6732254028320312
1700823737757966600,8.924966552734375,3.533289909362793,-1.374657154083252,1.568033218383789
1700823737768010800,8.9350107421875,-0.17370885610580444,-1.796776533126831,0.1860809326171875
1700823737778004000,8.94500390625,-1.3200783729553223,-0.9027426242828369,-0.14249897003173828
1700823737787927600,8.954927490234375,-1.9867029190063477,0.3239400386810303,-0.042283058166503906
1700823737797918200,8.964918212890625,-2.1182847023010254,3.3512983322143555,2.171306610107422
1700823737807895600,8.9748955078125,-2.068161725997925,1.0253868103027344,2.5879173278808594
1700823737817914400,8.984914306640626,-1.434939980506897,-1.0188403129577637,1.9486770629882812
1700823737827922200,8.994922119140625,0.47443750500679016,-0.2902538776397705,1.3999576568603516
1700823737837969200,9.00496923828125,1.4114853143692017,0.23302721977233887,1.1814584732055664
1700823737847953700,9.01495361328125,1.3782387971878052,1.7085633277893066,0.9195356369018555
1700823737858826800,9.02582666015625,0.3389585614204407,1.4787652492523193,0.09910297393798828
1700823737869971500,9.036971435546874,-0.08816981315612793,1.4684646129608154,-1.2343835830688477
1700823737879106800,9.04610693359375,-0.04920044541358948,1.6517634391784668,-1.4958415031433105
1700823737888788000,9.0557880859375,-1.2260881662368774,2.2868404388427734,-0.7911481857299805
1700823737898403800,9.06540380859375,-0.2814013361930847,3.126397132873535,0.19355106353759766
1700823737908787500,9.075787353515626,1.5685765743255615,3.7752976417541504,1.4826278686523438
1700823737918380800,9.085380859375,1.4798035621643066,2.8360562324523926,1.5099735260009766
1700823737928147000,9.09514697265625,0.8572558164596558,0.5285484790802002,0.6934747695922852
1700823737938093800,9.10509375,0.9049173593521118,-1.0652618408203125,0.3530445098876953
1700823737947981600,9.114981689453124,0.8842762112617493,-1.4544973373413086,0.2741975784301758
1700823737957955800,9.124955810546876,0.9201040863990784,-1.5426280498504639,0.04135417938232422
1700823737968149000,9.13514892578125,0.34058159589767456,-1.2804534435272217,-0.06456470489501953
1700823737978651400,9.1456513671875,-0.4568081498146057,-1.027207374572754,-0.37015247344970703
1700823737988350200,9.15535009765625,-0.33314570784568787,-0.427187442779541,-1.349532127380371
1700823737998127000,9.165127197265624,0.6208038330078125,2.3279950618743896,-1.019632339477539
1700823738008043500,9.17504345703125,-0.6713165044784546,1.7079014778137207,0.36353111267089844
1700823738018013200,9.18501318359375,-1.4250566959381104,1.4046216011047363,-0.12847232818603516
1700823738028509200,9.19550927734375,-1.5967159271240234,0.16040825843811035,-0.8250131607055664
1700823738038402000,9.205402099609374,-0.8026105165481567,-1.1393065452575684,-0.9559917449951172
1700823738048126000,9.2151259765625,0.1405692845582962,-0.7049612998962402,0.19026470184326172
1700823738058351600,9.2253515625,0.8725781440734863,-0.4835171699523926,0.8387260437011719
1700823738068104700,9.235104736328125,1.244633674621582,-0.11444258689880371,0.9062871932983398
1700823738078370300,9.245370361328124,0.43696069717407227,0.9242982864379883,0.64874267578125
1700823738088164600,9.25516455078125,0.08645658195018768,0.8420777320861816,0.428192138671875
1700823738098185200,9.265185302734375,-0.22612300515174866,0.556448221206665,-0.28231239318847656
1700823738108992300,9.2759921875,-0.17169919610023499,0.585993766784668,-0.5829019546508789
1700823738118454000,9.2854541015625,0.20530155301094055,0.9251108169555664,-0.2847099304199219
1700823738128172500,9.295172607421875,0.4768666923046112,0.6164681911468506,0.032611846923828125
1700823738138081800,9.305081787109375,0.6231181025505066,0.06356072425842285,0.05265331268310547
1700823738148010000,9.315010009765626,0.33653444051742554,-0.09246373176574707,0.34026527404785156
1700823738158017000,9.32501708984375,0.1866520196199417,-0.2922632694244385,0.7469329833984375
1700823738167950800,9.334950927734376,0.1262746900320053,-0.3463630676269531,0.7875528335571289
1700823738177941500,9.34494140625,0.21512803435325623,-0.8068258762359619,0.05415630340576172
1700823738193334300,9.360334228515624,-0.23729002475738525,0.2631857395172119,-0.37894535064697266
1700823738210619000,9.377618896484375,-0.23729638755321503,0.26314830780029297,-0.3789558410644531
1700823738228176000,9.39517578125,-0.461279034614563,0.31426477432250977,-0.30976104736328125
1700823738239977000,9.40697705078125,-0.773373007774353,1.0564053058624268,-0.042336463928222656
1700823738248014000,9.41501416015625,-0.3130964934825897,1.3431910276412964,-0.08817386627197266
1700823738263473000,9.430472900390624,0.8466708064079285,1.5529369115829468,0.1392230987548828
1700823738279242000,9.446241943359375,1.0090337991714478,1.4173247814178467,0.787236213684082
1700823738291997000,9.458996826171875,0.023007959127426147,0.8233585357666016,1.4741239547729492
1700823738303023000,9.470023193359374,0.3759543299674988,0.45209622383117676,1.5420503616333008
1700823738314693000,9.481693115234375,0.7694164514541626,0.8049757480621338,1.0293664932250977
1700823738326070000,9.493070068359375,-0.5739656686782837,3.783334493637085,-1.318089485168457
1700823738338738000,9.505738037109374,-0.5739656686782837,3.783334493637085,-1.318089485168457
1700823738348554000,9.515553955078126,-0.7599514722824097,4.542394161224365,-2.4843029975891113
1700823738359322000,9.526322021484376,-1.3166148662567139,3.3595309257507324,-2.1496434211730957
1700823738372094000,9.539093994140625,-1.2930498123168945,3.3145031929016113,-2.159358501434326
1700823738387951000,9.554951171875,-3.1749050617218018,-1.614255428314209,0.5265512466430664
1700823738397975000,9.56497509765625,-1.2283610105514526,-3.115983486175537,1.2508211135864258
1700823738412671000,9.5796708984375,1.2089484930038452,-2.7926762104034424,-0.35399532318115234
1700823738425880600,9.592880615234375,3.376356840133667,0.19605040550231934,-1.7491178512573242
1700823738438644200,9.605644287109374,1.1986953020095825,-0.13265490531921387,-1.7625036239624023
1700823738454364000,9.621364013671876,1.2611416578292847,-0.05598163604736328,-1.7372798919677734
1700823738470911000,9.637910888671875,-2.1882879734039307,-0.313509464263916,-0.759007453918457
1700823738488373000,9.655373046875,-2.9495058059692383,-0.8281784057617188,-1.6277575492858887
1700823738499463000,9.666462890625,-2.7806291580200195,-2.3857295513153076,-1.777712345123291
1700823738508223000,9.675222900390626,-1.8953380584716797,-3.928142547607422,-0.8749198913574219
1700823738519115000,9.686114990234374,-3.90937876701355,-7.132355213165283,-0.5692882537841797
1700823738528000000,9.695,-2.8726205825805664,-7.902214050292969,0.666534423828125
1700823738537823000,9.704822998046875,-1.6879472732543945,-8.134632110595703,1.4513835906982422
1700823738548780000,9.715780029296875,-2.491267681121826,-10.596702575683594,0.6328821182250977
1700823738559612000,9.72661181640625,10.047513961791992,3.9093239307403564,-4.79756498336792
1700823738572148000,9.73914794921875,-4.313776016235352,8.053542137145996,-0.5417490005493164
1700823738588000000,9.755,10.181270599365234,-1.1400647163391113,5.635339736938477
1700823738598654000,9.765654052734375,0.6500746011734009,0.30835938453674316,1.4322891235351562
1700823738608436000,9.77543603515625,-3.2599759101867676,-0.15921974182128906,3.2496566772460938
1700823738619053000,9.786052978515626,-0.032776594161987305,5.285356521606445,0.9662351608276367
1700823738628024000,9.795024169921875,-0.3868570327758789,0.20734000205993652,-1.5532021522521973
1700823738638169000,9.805169189453125,0.7106547355651855,-7.060854434967041,-3.382368564605713
1700823738650503000,9.8175029296875,1.6271955966949463,-2.0730643272399902,1.4989776611328125
1700823738663386600,9.83038671875,0.9501752853393555,-1.5496711730957031,0.8447980880737305
1700823738672748800,9.839748779296874,0.940767765045166,-0.06963276863098145,1.3237724304199219
1700823738688272000,9.85527197265625,0.9006984233856201,-0.05770230293273926,1.319422721862793
1700823738700827000,9.867826904296875,1.3247179985046387,-1.5401151180267334,1.225961685180664
1700823738709478000,9.876477783203125,0.33762919902801514,-1.9825210571289062,1.2978887557983398
1700823738722452000,9.889451904296875,-0.7976046800613403,-1.7093782424926758,1.4565649032592773
1700823738738147000,9.90514697265625,0.3961695432662964,-1.347165822982788,1.3576183319091797
1700823738750750000,9.91775,-0.3877788782119751,-0.9413883686065674,0.4994831085205078
1700823738768097000,9.935096923828125,-0.39389467239379883,-0.5863213539123535,-2.620816707611084
1700823738778755000,9.945755126953125,-0.31729602813720703,-0.8465890884399414,-1.7524852752685547
1700823738788060000,9.955059814453126,0.17169582843780518,0.9121415615081787,-1.0771594047546387
1700823738798437000,9.96543701171875,0.5784996747970581,2.0518651008605957,-0.805720329284668
1700823738807916000,9.974916015625,0.03323793411254883,3.31239914894104,-0.17824363708496094
1700823738817864000,9.984864013671874,-0.9896882772445679,3.033769369125366,0.46263694763183594
1700823738831406000,9.998406005859374,0.2542176842689514,1.658429741859436,1.331930160522461
1700823738844595000,10.011594970703126,0.2962545156478882,-0.8736798763275146,0.8994693756103516
1700823738861570000,10.028570068359375,-0.0012671351432800293,-0.5480139255523682,-0.5471420288085938
1700823738877859000,10.044859130859376,-0.5619046688079834,0.7655026912689209,-0.15944576263427734
1700823738888168000,10.05516796875,-0.42427581548690796,1.4300346374511719,0.28063011169433594
1700823738899532000,10.066531982421875,-0.6717476844787598,0.6867244243621826,0.06400394439697266
1700823738912741000,10.0797412109375,-0.1498788595199585,-0.09468889236450195,0.05991840362548828
1700823738927942000,10.09494189453125,0.23264151811599731,-0.9419476985931396,-0.48395252227783203
1700823738937872000,10.104871826171875,-1.1542545557022095,-0.7661347389221191,-0.2758970260620117
1700823738948500000,10.1155,1.8124133348464966,0.347991943359375,-0.24091243743896484
1700823738962498000,10.129498046875,1.791914939880371,-0.40069079399108887,0.0683746337890625
1700823738979104000,10.14610400390625,2.452746868133545,-1.3382582664489746,0.5494527816772461
1700823738987939000,10.15493896484375,-0.9672372937202454,-2.511779308319092,0.5884389877319336
1700823739001578000,10.168577880859376,-2.7316529750823975,-0.11915111541748047,-0.15921401977539062
1700823739017905000,10.18490478515625,0.34306788444519043,2.3785223960876465,-1.1320877075195312
1700823739029118000,10.196117919921875,0.753813624382019,3.0674517154693604,0.6578493118286133
1700823739037829000,10.2048291015625,-0.5097134709358215,0.6803402900695801,-0.11750221252441406
1700823739048109000,10.215109130859375,-0.8218950629234314,-0.9958436489105225,-1.3580198287963867
1700823739058087000,10.2250869140625,0.14967572689056396,-1.2379508018493652,-1.0952024459838867
1700823739067910000,10.234909912109375,1.1510734558105469,-0.5818839073181152,0.3192291259765625
1700823739078214000,10.2452138671875,1.8433597087860107,-0.6370382308959961,1.0382537841796875
1700823739087811000,10.25481103515625,1.0661194324493408,-1.4067347049713135,0.7468357086181641
1700823739098166000,10.265166015625,-0.4135192632675171,-1.1010313034057617,-0.2522592544555664
1700823739107935000,10.27493505859375,-2.067854642868042,0.5981289148330688,-1.3604412078857422
1700823739117794000,10.2847939453125,-2.137258529663086,1.6284152269363403,-0.9423837661743164
1700823739128013000,10.295012939453125,-2.8131513595581055,1.9265496730804443,0.9727783203125
1700823739137835000,10.3048349609375,-1.3540438413619995,1.994930386543274,0.6970729827880859
1700823739147986000,10.31498583984375,0.7084212303161621,1.2469844818115234,-0.08788585662841797
1700823739157912000,10.324912109375,1.0625938177108765,-0.5024595260620117,-0.7592048645019531
1700823739167927000,10.334927001953124,1.143581748008728,-1.4902799129486084,-0.5781993865966797
1700823739177840000,10.344840087890624,0.7917616367340088,-0.64870285987854,0.7300243377685547
1700823739187904000,10.354904052734375,0.4723536968231201,-0.0621190071105957,0.9790124893188477
1700823739197824000,10.364823974609376,0.11990094184875488,0.40263915061950684,0.5811300277709961
1700823739207978000,10.37497802734375,-0.40442919731140137,0.6552274227142334,-0.1718463897705078
1700823739217916000,10.384916015625,-0.5708262920379639,0.8168359994888306,-0.9092607498168945
1700823739228406000,10.395406005859375,-0.43930840492248535,0.9861673712730408,-0.9749555587768555
1700823739237840000,10.40483984375,-0.05926704406738281,1.439691185951233,-0.4029083251953125
1700823739247962000,10.414962158203124,-0.10600519180297852,1.983434796333313,-0.16260910034179688
1700823739258638000,10.42563818359375,0.23211407661437988,1.2668015956878662,-0.09774494171142578
1700823739267896000,10.43489599609375,0.2633100748062134,0.024021148681640625,0.1671161651611328
1700823739278251000,10.4452509765625,0.2817037105560303,-0.9484343528747559,0.3447885513305664
1700823739287967000,10.454967041015625,0.08745920658111572,-1.5908186435699463,0.47934818267822266
1700823739297821000,10.464821044921875,0.2954186201095581,-1.698572039604187,0.08918285369873047
1700823739307884000,10.474884033203125,-0.0040329694747924805,-0.86745285987854,-0.009737014770507812
1700823739317817000,10.484817138671875,-0.06210732460021973,0.376863956451416,0.03913307189941406
1700823739328165000,10.4951650390625,0.3463120460510254,1.1480387449264526,-0.2660980224609375
1700823739337795000,10.504795166015626,0.42094898223876953,0.9412766098976135,-0.08279705047607422
1700823739347808000,10.51480810546875,-0.2319248914718628,0.6148135662078857,-0.021020889282226562
1700823739357914000,10.5249140625,-1.0104866027832031,-0.41983115673065186,-0.19713783264160156
1700823739367798000,10.534798095703126,-0.5040693283081055,-1.8011420965194702,-0.6720428466796875
1700823739377812000,10.54481201171875,0.10265135765075684,-2.7335355281829834,-0.3623161315917969
1700823739387878000,10.5548779296875,1.2754517793655396,-0.9580544233322144,0.8675203323364258
1700823739397889000,10.564888916015626,1.3437222242355347,1.5326054096221924,1.5921859741210938
1700823739407876000,10.5748759765625,0.2914036512374878,1.0318570137023926,0.08454513549804688
1700823739417838000,10.584838134765626,-0.03424859046936035,0.5253856778144836,-0.9126834869384766
1700823739428115000,10.595114990234375,-0.4587043523788452,-0.11004054546356201,-1.1591720581054688
1700823739437802000,10.604802001953125,0.15500354766845703,0.05008888244628906,-0.1595592498779297
1700823739447880000,10.6148798828125,1.082879662513733,0.12782573699951172,0.44429874420166016
1700823739457831000,10.624830810546875,0.9965941905975342,-0.07623326778411865,0.12444591522216797
1700823739467875000,10.634875,0.8810467720031738,-0.04333007335662842,-0.1934976577758789
1700823739477807000,10.64480712890625,1.0748164653778076,-0.22308433055877686,-0.3722267150878906
1700823739487868000,10.654867919921875,0.25532078742980957,-0.43920159339904785,0.06666946411132812
1700823739497814000,10.66481396484375,-0.0035562515258789062,-0.07312226295471191,0.2924203872680664
1700823739507803000,10.674802978515626,-0.4446687698364258,0.08989202976226807,0.2176198959350586
1700823739517888000,10.684887939453125,-1.0461589097976685,0.41788774728775024,0.27069664001464844
1700823739527803000,10.694802978515625,-0.9497103691101074,0.4324871897697449,-0.050292015075683594
1700823739537814000,10.70481396484375,-0.5042797327041626,0.33437204360961914,-0.12089347839355469
1700823739547816000,10.71481591796875,-0.5143364667892456,0.31000053882598877,0.21497440338134766
1700823739557800000,10.724800048828126,-0.25520598888397217,0.07420551776885986,0.26925182342529297
1700823739567818000,10.73481787109375,-0.002017974853515625,0.005186200141906738,-0.30179500579833984
1700823739577890000,10.74489013671875,-0.513811469078064,0.28875732421875,-0.06525039672851562
1700823739588479000,10.75547900390625,-0.6220220327377319,0.25998878479003906,0.07771873474121094
1700823739597793000,10.76479296875,-0.27313172817230225,-0.08626508712768555,-0.08763790130615234
1700823739607925000,10.774925048828125,-0.10743677616119385,-0.5313459634780884,-0.2057018280029297
1700823739617831000,10.784830810546875,0.12302172183990479,-0.6082346439361572,0.2514772415161133
1700823739627920000,10.794919921875,0.4275820255279541,-0.6342157125473022,0.4186286926269531
1700823739637849000,10.80484912109375,0.259721040725708,-0.4589897394180298,0.2381572723388672
1700823739647938000,10.81493798828125,0.14032816886901855,0.23737692832946777,-0.49642467498779297
1700823739657806000,10.82480615234375,-2.344141960144043,-1.8557871580123901,-3.7459397315979004
1700823739667791000,10.834791015625,-1.614652156829834,1.0774612426757812,-0.4313173294067383
1700823739677896000,10.84489599609375,1.4028500318527222,1.5019795894622803,1.4726543426513672
1700823739687788000,10.8547880859375,0.4844551086425781,-0.7807902097702026,-0.7140703201293945
1700823739697882000,10.864882080078125,-0.3292180299758911,-1.3522112369537354,-1.5388736724853516
1700823739707797000,10.874796875,-0.6662951707839966,0.16554272174835205,1.3455877304077148
1700823739717921000,10.884921142578126,-0.3075162172317505,1.3891277313232422,4.67595100402832
1700823739728108000,10.89510791015625,0.2924678325653076,1.4363569021224976,3.8450822830200195
1700823739737826000,10.904825927734375,1.2442586421966553,0.09923267364501953,-0.0974130630493164
1700823739747812000,10.91481201171875,0.7361280918121338,-0.19562530517578125,-1.5119638442993164
1700823739757841000,10.9248408203125,0.20855998992919922,0.2275172472000122,-1.389540672302246
1700823739767928000,10.934927978515624,-0.4797639846801758,0.5795734524726868,-0.9153728485107422
1700823739777936000,10.944935791015626,-0.4132974147796631,0.713944673538208,-0.3289041519165039
1700823739787818000,10.95481787109375,-0.3494143486022949,0.9956885576248169,0.5439901351928711
1700823739798020000,10.96502001953125,0.0364687442779541,1.0469579696655273,1.7141695022583008
1700823739808001000,10.9750009765625,1.2002367973327637,0.5756245851516724,2.0999765396118164
1700823739817973000,10.984972900390625,1.78340744972229,-0.3836681842803955,1.1246109008789062
1700823739828211000,10.9952109375,1.3598697185516357,-0.8435182571411133,0.22990703582763672
1700823739838948000,11.005947998046874,0.7845156192779541,-0.8728383779525757,-1.3501958847045898
1700823739848675000,11.015675048828125,-0.10016441345214844,-0.5691113471984863,-3.289414882659912
1700823739857884000,11.0248837890625,-1.33749258518219,0.49627071619033813,-2.481731414794922
1700823739867945000,11.034945068359375,-1.6095720529556274,0.9614089131355286,-0.5264225006103516
1700823739877948000,11.044947998046876,-0.708736777305603,0.5600672960281372,0.07085132598876953
1700823739887906000,11.054906005859374,0.7160348892211914,-0.10133826732635498,0.09496593475341797
1700823739897815000,11.06481494140625,1.9322428703308105,-0.5286920070648193,-0.4750356674194336
1700823739907928000,11.074927978515625,2.4044768810272217,-0.2388521432876587,-0.8595104217529297
1700823739917915000,11.084914794921875,1.8881409168243408,0.9278358817100525,-0.1787576675415039
1700823739927933000,11.094932861328125,1.3402738571166992,1.7663547992706299,0.5987653732299805
1700823739937851000,11.104850830078124,1.2579295635223389,1.9147839546203613,1.1125068664550781
1700823739947927000,11.114927001953125,0.8668572902679443,2.6505661010742188,1.613962173461914
1700823739957926000,11.12492578125,-0.3779466152191162,2.1579155921936035,-0.19754886627197266
1700823739967990000,11.134989990234375,-1.2692991495132446,1.799178957939148,-0.08485031127929688
1700823739977968000,11.144968017578124,-1.6572972536087036,1.7892705202102661,1.6997461318969727
1700823739988138000,11.155137939453125,-0.5374666452407837,0.8591963648796082,2.9260168075561523
1700823739997954000,11.1649541015625,1.9365488290786743,-0.2977161407470703,3.3608808517456055
1700823740007927000,11.174927001953124,3.821657180786133,-0.8779821395874023,2.142213821411133
1700823740017837000,11.184837158203125,4.294613361358643,-1.4050477743148804,0.2681102752685547
1700823740027888000,11.19488818359375,3.0919573307037354,-1.5538438558578491,-1.2760038375854492
1700823740039260000,11.206260009765625,0.7526127099990845,-1.2369744777679443,-1.1509370803833008
1700823740048000000,11.215,-1.269957184791565,-0.14517849683761597,-0.083587646484375
1700823740057880000,11.224880126953124,-1.8729681968688965,0.253531277179718,1.0184803009033203
1700823740067999000,11.2349990234375,-1.048919916152954,0.05454069375991821,1.0145902633666992
1700823740077975000,11.24497509765625,-1.0118184089660645,-0.027043625712394714,0.20382404327392578
1700823740087963000,11.254962890625,-2.2941761016845703,0.3670465052127838,-0.6812744140625
1700823740097872000,11.264871826171875,-3.012596368789673,0.1510935127735138,-0.7826118469238281
1700823740107958000,11.2749580078125,-1.789533257484436,-0.7442651987075806,-0.6059656143188477
1700823740117911000,11.2849111328125,0.30038321018218994,-1.3862242698669434,-0.06758785247802734
1700823740127812000,11.29481201171875,1.217544436454773,-1.2438100576400757,0.38118553161621094
1700823740138006000,11.305006103515625,0.25299954414367676,0.9274979829788208,0.19950485229492188
1700823740148621000,11.31562109375,-1.3201558589935303,2.5062689781188965,0.016898155212402344
1700823740157904000,11.32490380859375,-1.6824612617492676,2.460956573486328,-1.1848735809326172
1700823740167902000,11.33490185546875,-0.9400485754013062,0.36863061785697937,-1.5710430145263672
1700823740177904000,11.344904052734375,-0.9003562927246094,-0.6957179307937622,-1.9076266288757324
1700823740187959000,11.354958984375,-1.267430067062378,-1.5995032787322998,-1.4766569137573242
1700823740198007000,11.365007080078126,-1.6002001762390137,-1.8513052463531494,-0.4561328887939453
1700823740207937000,11.37493701171875,-1.339078664779663,-1.5838935375213623,1.6395273208618164
1700823740218015000,11.385014892578125,-1.588815689086914,-0.2788565754890442,2.7785120010375977
1700823740227967000,11.394967041015626,-2.716581106185913,1.4842438697814941,3.3809986114501953
1700823740237920000,11.404919921875,-3.5245208740234375,1.5193390846252441,3.052570343017578
1700823740248002000,11.415001953125,-4.527562141418457,0.13524377346038818,1.4928932189941406
1700823740258401000,11.425401123046875,-3.796754837036133,-1.191731572151184,-3.3235654830932617
1700823740267975000,11.434974853515625,-1.7760417461395264,-1.3968347311019897,-3.9915390014648438
1700823740277897000,11.44489697265625,1.1490018367767334,-0.4861176013946533,-3.4635534286499023
1700823740288149000,11.45514892578125,5.390002250671387,1.3106040954589844,-1.6271190643310547
1700823740298159000,11.4651591796875,8.111048698425293,0.9099935293197632,-0.7836112976074219
1700823740307920000,11.474919921875,5.8686370849609375,-1.6689229011535645,-1.1819877624511719
1700823740317822000,11.484822021484375,2.224614381790161,-2.951183557510376,-2.6516504287719727
1700823740327819000,11.494819091796876,0.23899626731872559,-1.281751036643982,-2.6590423583984375
1700823740338060000,11.50506005859375,0.9701101779937744,-1.0678062438964844,-3.24705171585083
1700823740347935000,11.51493505859375,1.061637043952942,-0.8096056580543518,-4.275840759277344
1700823740357854000,11.52485400390625,-0.0831446647644043,0.1380445957183838,-4.565455913543701
1700823740368004000,11.535004150390625,-1.3736311197280884,0.42706918716430664,-4.112696170806885
1700823740377842000,11.544842041015626,-1.566631555557251,0.6562343239784241,-0.051217079162597656
1700823740388188000,11.55518798828125,-0.8486005067825317,0.7159034013748169,3.985976219177246
1700823740397838000,11.564838134765624,-1.4368184804916382,1.0578982830047607,5.176427841186523
1700823740407909000,11.5749091796875,-2.2575769424438477,1.0842547416687012,4.980752944946289
1700823740417847000,11.584846923828126,-2.13284969329834,1.2624826431274414,3.8914623260498047
1700823740427997000,11.594996826171876,-0.7743375301361084,0.8845624923706055,2.5798473358154297
1700823740438102000,11.60510205078125,1.6774359941482544,-1.3810895681381226,1.176447868347168
1700823740447949000,11.614948974609375,2.5658745765686035,-1.7718336582183838,-0.16112232208251953
1700823740458029000,11.625029052734375,2.144192695617676,-1.3346750736236572,-0.26868438720703125
1700823740468341000,11.635341064453126,1.0734436511993408,0.6443607807159424,2.0063705444335938
1700823740477844000,11.644843994140626,0.5217524766921997,1.1595628261566162,4.990472793579102
1700823740488243000,11.655242919921875,0.2688528299331665,0.7971282005310059,5.862212181091309
1700823740498034000,11.665033935546875,0.16470026969909668,1.0359803438186646,4.8185577392578125
1700823740507893000,11.67489306640625,0.46695268154144287,0.5408638715744019,1.8054828643798828
1700823740517869000,11.684869140625,0.9508689641952515,-0.03292989730834961,-1.1780071258544922
1700823740527904000,11.694904052734374,0.5347981452941895,-0.026490092277526855,-3.023446559906006
1700823740537848000,11.70484814453125,-0.8317621946334839,-0.05841726064682007,-4.6303277015686035
1700823740547928000,11.714927978515625,-1.4643551111221313,-1.2484360933303833,-4.814601421356201
1700823740557967000,11.724967041015624,-0.825892984867096,-3.066863775253296,-4.9629597663879395
1700823740567927000,11.734927001953125,-0.5604561567306519,-2.2780861854553223,-4.317270755767822
1700823740577914000,11.7449140625,-1.2899651527404785,-1.26727294921875,-1.9650325775146484
1700823740587972000,11.75497216796875,-1.0376574993133545,-1.28947913646698,-2.0338568687438965
1700823740597837000,11.764837158203125,-0.49964308738708496,-1.249211311340332,-2.0368075370788574
1700823740608051000,11.775051025390624,-0.36786162853240967,-1.381492257118225,-1.2649726867675781
1700823740617850000,11.78485009765625,-1.0517585277557373,-1.3890063762664795,-0.2874784469604492
1700823740627902000,11.79490185546875,-2.002992630004883,-1.2133889198303223,0.5756044387817383
1700823740637848000,11.80484814453125,-3.727518081665039,-0.9886751770973206,1.9542360305786133
1700823740647924000,11.814924072265624,-4.175938606262207,-1.244809627532959,2.762885093688965
1700823740657859000,11.824859130859375,-1.677616000175476,-1.471598744392395,3.165694236755371
1700823740667924000,11.834924072265625,2.8433239459991455,-0.930141270160675,3.047122001647949
1700823740677872000,11.8448720703125,8.089986801147461,-0.29457271099090576,2.984320640563965
1700823740688152000,11.855152099609375,10.430160522460938,0.22074174880981445,1.8015823364257812
1700823740697933000,11.86493310546875,7.402894020080566,0.12832283973693848,-0.7511959075927734
1700823740707823000,11.874822998046875,3.398205518722534,-0.34609782695770264,-3.4158692359924316
1700823740717804000,11.884803955078125,-0.5314725637435913,-0.8223340511322021,-6.440860748291016
1700823740728047000,11.895047119140624,-6.199880599975586,-1.6064642667770386,-6.371316909790039
1700823740737987000,11.904987060546874,-5.337935924530029,-1.0851714611053467,-1.6663613319396973
1700823740747811000,11.91481103515625,-4.16763973236084,1.2990292310714722,3.148378372192383
1700823740757811000,11.92481103515625,-1.3732601404190063,3.146336317062378,6.724188804626465
1700823740767815000,11.93481494140625,1.0282524824142456,3.792508602142334,8.073088645935059
1700823740777902000,11.944902099609376,1.8018585443496704,2.3609983921051025,5.464837074279785
1700823740788096000,11.955095947265624,0.3994622230529785,1.512262225151062,1.8284454345703125
1700823740797978000,11.96497802734375,-0.8654499650001526,0.3641272783279419,-0.6600866317749023
1700823740807981000,11.97498095703125,-0.8967967629432678,-0.5575041770935059,-1.7918915748596191
1700823740817969000,11.984968994140624,-0.3012429475784302,-0.5446450710296631,-1.5929293632507324
1700823740828072000,11.995072021484376,0.25948429107666016,-0.3907809257507324,-0.781682014465332
1700823740837945000,12.004945068359374,0.5744142532348633,-0.20332980155944824,-0.022207260131835938
1700823740847972000,12.01497216796875,0.39190173149108887,0.18747389316558838,0.27887916564941406
1700823740857851000,12.024850830078124,-0.2089909315109253,0.48863935470581055,0.2437305450439453
1700823740867980000,12.03497998046875,-0.33885180950164795,0.5859002470970154,0.23382091522216797
1700823740878421000,12.0454208984375,-0.09978747367858887,-0.5717231035232544,0.10538196563720703
1700823740891320000,12.058320068359375,-0.16297948360443115,-0.6530486345291138,0.18721485137939453
1700823740907945000,12.074945068359375,-1.0232186317443848,-0.5389355421066284,0.6782045364379883
1700823740917891000,12.08489111328125,-0.749409019947052,-0.48962724208831787,0.7497920989990234
1700823740928686000,12.09568603515625,-0.044431209564208984,-0.6237199306488037,0.9924383163452148
1700823740937896000,12.10489599609375,-0.06199848651885986,-0.4082608222961426,-0.08735084533691406
1700823740947883000,12.114883056640625,0.11693799495697021,0.5697756409645081,0.05185508728027344
1700823740957861000,12.124861083984374,-0.19842255115509033,0.6397497653961182,-0.29864025115966797
1700823740967946000,12.134946044921875,-0.7661852836608887,0.4283716678619385,-0.7899436950683594
1700823740977812000,12.14481201171875,-0.30734407901763916,0.3306516408920288,-0.7272272109985352
1700823740988142000,12.15514208984375,0.5857727527618408,0.07935917377471924,0.04156780242919922
1700823740997836000,12.1648359375,3.7693634033203125,0.4852266311645508,0.9195165634155273
1700823741007954000,12.174953857421874,4.993533134460449,0.7167524695396423,1.9267644882202148
1700823741017940000,12.18493994140625,2.191035509109497,0.38721799850463867,-0.1662282943725586
1700823741027987000,12.194987060546875,0.6800447702407837,0.33178794384002686,0.47353363037109375
1700823741037951000,12.204950927734375,-1.6575833559036255,0.1962829828262329,-0.31987857818603516
1700823741047974000,12.214973876953126,-3.4344887733459473,0.18964219093322754,-1.479569435119629
1700823741058106000,12.225106201171876,-4.6551971435546875,0.0648050308227539,-1.1915407180786133
1700823741067904000,12.234904052734375,-2.769972324371338,0.28580260276794434,1.446202278137207
1700823741077852000,12.244851806640625,0.6056874990463257,0.10822641849517822,1.4426498413085938
1700823741088139000,12.255138916015625,1.7379688024520874,0.27000904083251953,1.6437177658081055
1700823741097967000,12.264967041015625,1.9054903984069824,0.27950966358184814,1.2554311752319336
1700823741107903000,12.274903076171874,1.8095508813858032,0.04895329475402832,0.1215677261352539
1700823741117853000,12.28485302734375,1.8110450506210327,0.4777839183807373,-0.23844528198242188
1700823741129105000,12.29610498046875,1.4696170091629028,0.7959214448928833,-0.9007635116577148
1700823741137814000,12.30481396484375,0.5228437185287476,0.9509340524673462,-1.3865442276000977
1700823741147819000,12.314819091796876,-2.0546634197235107,0.11468195915222168,-1.640472412109375
1700823741157888000,12.324887939453125,-1.9343253374099731,-0.9626203775405884,-1.8804965019226074
1700823741168141000,12.33514111328125,-1.8242369890213013,-0.7155618667602539,-1.0075693130493164
1700823741177823000,12.344822998046874,-1.0822349786758423,0.5489909648895264,1.0707616806030273
1700823741190901000,12.35790087890625,0.4253499507904053,0.26781684160232544,1.4456958770751953
1700823741207925000,12.374925048828125,3.002202033996582,0.20660603046417236,-0.15532588958740234
1700823741217836000,12.3848359375,3.0607376098632812,0.3547714948654175,-0.8699407577514648
1700823741227986000,12.39498583984375,1.4125992059707642,0.28169703483581543,-0.8425197601318359
1700823741238529000,12.405529052734375,-0.5711374282836914,0.6758295893669128,-0.2956228256225586
1700823741247943000,12.41494287109375,-2.0449063777923584,1.0191636085510254,1.4191341400146484
1700823741257878000,12.4248779296875,-2.2214174270629883,0.6139635443687439,2.5783815383911133
1700823741267800000,12.434800048828125,-0.6363892555236816,1.0462151765823364,3.1606950759887695
1700823741277836000,12.4448359375,0.5564397573471069,1.6083223819732666,3.6254968643188477
1700823741288047000,12.455047119140625,1.9949983358383179,1.2219759225845337,2.7743310928344727
1700823741297921000,12.464921142578126,2.6311094760894775,0.20614132285118103,0.1763753890991211
1700823741307893000,12.47489306640625,1.3679008483886719,-4.9782538414001465,-7.377840995788574
1700823741317801000,12.484801025390626,0.6561864614486694,-0.7397583723068237,-4.481123924255371
1700823741327968000,12.494968017578126,-0.2891768217086792,-0.05622142553329468,-2.33197021484375
1700823741337865000,12.504864990234376,-2.114452838897705,-0.20313607156276703,-0.5810842514038086
1700823741347997000,12.514996826171876,-2.1123321056365967,-0.11146371066570282,1.0330877304077148
1700823741357846000,12.524845947265625,-0.7138871550559998,-0.18402111530303955,1.899827003479004
1700823741368050000,12.5350498046875,1.0204781293869019,-0.13915663957595825,1.5998296737670898
1700823741377805000,12.54480517578125,2.7238826751708984,0.24272754788398743,1.855210304260254
1700823741387922000,12.554921875,2.430799961090088,0.7452698349952698,1.3987865447998047
1700823741397798000,12.5647978515625,1.0492863655090332,0.9485862851142883,0.6137123107910156
1700823741407917000,12.5749169921875,-1.8264929056167603,1.127068042755127,0.45066165924072266
1700823741417800000,12.584800048828125,-3.853738307952881,0.8032881021499634,0.7759943008422852
1700823741427999000,12.5949990234375,-2.550915241241455,0.6048927307128906,2.38192081451416
1700823741437985000,12.604985107421875,0.949882984161377,0.24719902873039246,3.33746337890625
1700823741447811000,12.61481103515625,3.72996187210083,0.07401562482118607,3.6267919540405273
1700823741457790000,12.6247900390625,4.847219944000244,0.29203933477401733,2.9768600463867188
1700823741467890000,12.634889892578125,4.52195405960083,0.44069021940231323,1.4596128463745117
1700823741477840000,12.64483984375,1.8245378732681274,0.5561923980712891,-0.8344182968139648
1700823741487938000,12.65493798828125,-3.029654026031494,-0.7424512505531311,-4.299871444702148
1700823741498422000,12.665422119140626,-7.64093017578125,0.1511421799659729,-1.9685616493225098
1700823741508777000,12.67577685546875,-6.411774635314941,-2.479459762573242,-3.030280590057373
1700823741517790000,12.6847900390625,-3.0793042182922363,-0.7089231014251709,0.5382871627807617
1700823741528067000,12.695067138671876,1.2866166830062866,-0.36037272214889526,2.2226781845092773
1700823741537975000,12.70497509765625,4.745767593383789,0.014755070209503174,1.4736642837524414
1700823741547913000,12.714912841796876,5.8471808433532715,-0.510974645614624,0.2063283920288086
1700823741557799000,12.724798828125,6.62799072265625,-0.1118842363357544,-0.6693849563598633
1700823741567935000,12.73493505859375,3.924551010131836,3.6219801902770996,2.950507164001465
1700823741577797000,12.744797119140625,4.778428554534912,-1.3090195655822754,-3.87748384475708
1700823741587918000,12.75491796875,-0.3007107973098755,-3.2514495849609375,-4.372664928436279
1700823741598175000,12.765175048828125,-4.67726469039917,-1.0553994178771973,-1.9977641105651855
1700823741607804000,12.774803955078125,-5.102932453155518,-0.6966804265975952,-0.5018339157104492
1700823741617913000,12.7849130859375,-3.906407594680786,-0.5595999956130981,0.1127166748046875
1700823741627802000,12.794802001953125,-1.1251804828643799,-0.47176527976989746,-0.8618793487548828
1700823741637917000,12.8049169921875,1.200209140777588,-0.6427233815193176,-2.658687114715576
1700823741647815000,12.81481494140625,1.9894392490386963,-0.1432563066482544,-3.025458335876465
1700823741657960000,12.8249599609375,2.8040413856506348,-0.14632058143615723,-2.670395851135254
1700823741667979000,12.83497900390625,3.5768520832061768,-0.5936368703842163,-2.5055651664733887
1700823741678208000,12.8452080078125,4.247801780700684,-0.9381066560745239,-2.650911331176758
1700823741687949000,12.854948974609375,2.84959077835083,-1.0922244787216187,-2.949735164642334
1700823741697811000,12.86481103515625,-0.5673397779464722,-1.0554008483886719,-2.382254123687744
1700823741707824000,12.87482421875,-3.8322153091430664,-0.658643364906311,-0.8849239349365234
1700823741717801000,12.884801025390624,-6.269487380981445,-0.4415345788002014,0.4116954803466797
