time,seconds_elapsed,z,y,x
1700823729053700000,0.2207001953125,-0.443869948387146,0.029474247246980667,0.6422484517097473
1700823729062984000,0.22998388671875,-0.32475122809410095,-0.11285735666751862,0.6239224672317505
1700823729072990000,0.239989990234375,-0.18364135921001434,-0.27779096364974976,0.5701663494110107
1700823729082996000,0.249995849609375,-0.08223773539066315,-0.4488332271575928,0.44860416650772095
1700823729092927000,0.259927001953125,-0.06146831437945366,-0.5710062980651855,0.24579690396785736
1700823729102929000,0.269928955078125,-0.08101600408554077,-0.5899431109428406,0.03199406713247299
1700823729112997000,0.2799970703125,-0.12866349518299103,-0.5056437253952026,-0.15676330029964447
1700823729122965000,0.289965087890625,-0.18241962790489197,-0.3914119005203247,-0.30031663179397583
1700823729133038000,0.3000380859375,-0.24045182764530182,-0.3400992155075073,-0.37545305490493774
1700823729142947000,0.309947021484375,-0.25389087200164795,-0.2955060601234436,-0.38095083832740784
1700823729153102000,0.32010205078125,-0.21479548513889313,-0.2393064647912979,-0.3381902575492859
1700823729163343000,0.330343017578125,-0.1952477991580963,-0.14828753471374512,-0.24778221547603607
1700823729173091000,0.340091064453125,-0.22029328346252441,-0.12690725922584534,-0.1097266674041748
1700823729183182000,0.35018212890625,-0.26427558064460754,-0.1696678251028061,0.028939740732312202
1700823729193162000,0.360161865234375,-0.30031663179397583,-0.19165897369384766,0.10468703508377075
1700823729203148000,0.37014794921875,-0.2771037518978119,-0.24785856902599335,0.14928019046783447
1700823729213059000,0.38005908203125,-0.19463694095611572,-0.23869559168815613,0.19081902503967285
1700823729223034000,0.3900341796875,-0.17325665056705475,-0.24908030033111572,0.2335795909166336
1700823729232973000,0.39997314453125,-0.30947959423065186,-0.09147707372903824,0.28611400723457336
1700823729242988000,0.409988037109375,-0.41149410605430603,-0.048105638474226,0.24090997874736786
1700823729252936000,0.41993603515625,-0.47685667872428894,-0.0022907445672899485,0.17004960775375366
1700823729263180000,0.430179931640625,-0.47685667872428894,0.07223481684923172,0.11995866149663925
1700823729272986000,0.439986083984375,-0.4292092025279999,0.13454307615756989,0.09980010986328125
1700823729282970000,0.44997021484375,-0.37484219670295715,0.1791362315416336,0.11446087807416916
1700823729293155000,0.460155029296875,-0.33880114555358887,0.18157969415187836,0.15172365307807922
1700823729303026000,0.47002587890625,-0.30947959423065186,0.12721268832683563,0.1834886521100998
1700823729313011000,0.480010986328125,-0.2917645275592804,0.02275473065674305,0.18471038341522217
1700823729323113000,0.490113037109375,-0.2758820056915283,-0.09575312584638596,0.11385001242160797
1700823729333142000,0.50014208984375,-0.25816693902015686,-0.18677204847335815,-0.0022143865935504436
1700823729342954000,0.5099541015625,-0.26366472244262695,-0.1892155110836029,-0.08712465316057205
1700823729353314000,0.52031396484375,-0.24289529025554657,-0.13607023656368256,-0.10300715267658234
1700823729362958000,0.5299580078125,-0.20441077649593353,-0.14217889308929443,-0.07612907886505127
1700823729372964000,0.539964111328125,-0.15737415850162506,-0.18860463798046112,-0.021762074902653694
1700823729382970000,0.54997021484375,-0.11155926436185837,-0.20631973445415497,0.082085020840168
1700823729392945000,0.55994482421875,-0.07246389240026474,-0.11102475970983505,0.24457517266273499
1700823729402971000,0.569970947265625,-0.0339793786406517,0.059406645596027374,0.4406629204750061
1700823729413142000,0.58014208984375,0.019776761531829834,0.12232576310634613,0.5799401998519897
1700823729422977000,0.58997705078125,0.06253732740879059,-0.08109235763549805,0.5738315582275391
1700823729432946000,0.59994580078125,0.11629346758127213,-0.37308594584465027,0.4522693455219269
1700823729442937000,0.60993701171875,0.22258402407169342,-0.5135849714279175,0.2903900742530823
1700823729452921000,0.619921142578125,0.31238120794296265,-0.5032002329826355,0.122402124106884
1700823729462934000,0.62993408203125,0.315435528755188,-0.4482223689556122,-0.033368512988090515
1700823729472955000,0.639954833984375,0.23113614320755005,-0.4115704596042633,-0.14149166643619537
1700823729482991000,0.6499912109375,0.13889548182487488,-0.3455969989299774,-0.14332425594329834
1700823729492935000,0.659934814453125,0.09613491594791412,-0.28817567229270935,-0.05719225853681564
1700823729502922000,0.669921875,0.10529789328575134,-0.2454151064157486,0.03321579843759537
1700823729512953000,0.679953125,0.14133894443511963,-0.1941024363040924,0.05826127156615257
1700823729522891000,0.68989111328125,0.16088663041591644,-0.15073099732398987,0.039935316890478134
1700823729532943000,0.699943115234375,0.122402124106884,-0.16233743727207184,0.030772335827350616
1700823729542917000,0.709917236328125,-0.09078984707593918,-0.22159136831760406,0.11934779584407806
1700823729553043000,0.72004296875,-0.19341520965099335,-0.3828597962856293,0.1938733607530594
1700823729562963000,0.729962890625,-0.28443413972854614,-0.3969096839427948,0.2592359483242035
1700823729572901000,0.739901123046875,-0.3375793993473053,-0.3608686327934265,0.2903900742530823
1700823729583078000,0.750077880859375,-0.30947959423065186,-0.20876319706439972,0.25740334391593933
1700823729592962000,0.759962158203125,-0.19708040356636047,0.024587325751781464,0.17737999558448792
1700823729602926000,0.769926025390625,-0.05047274008393288,0.18035796284675598,0.08330674469470978
1700823729613195000,0.780195068359375,0.08391761034727097,0.28725937008857727,0.057650405913591385
1700823729623013000,0.79001318359375,0.1126282811164856,0.3446807265281677,0.14928019046783447
1700823729632978000,0.79997802734375,0.0264962799847126,0.35873061418533325,0.33253976702690125
1700823729642918000,0.80991796875,-0.09934195876121521,0.2713768780231476,0.5610033869743347
1700823729652980000,0.81997998046875,-0.2111303061246872,0.1082758679986,0.7485389709472656
1700823729663031000,0.830031005859375,-0.2618321180343628,-0.03039054572582245,0.838336169719696
1700823729672981000,0.83998095703125,-0.25877779722213745,-0.15622878074645996,0.8334492444992065
1700823729682958000,0.8499580078125,-0.21357376873493195,-0.27290403842926025,0.7754170894622803
1700823729692923000,0.8599228515625,-0.12133310735225677,-0.3156646192073822,0.6917285323143005
1700823729703037000,0.870036865234375,0.01488984003663063,-0.27229318022727966,0.6092617511749268
1700823729713194000,0.880194091796875,0.14011721312999725,-0.18555031716823578,0.5469534397125244
1700823729723206000,0.890205810546875,0.19631682336330414,-0.11285735666751862,0.5145776271820068
1700823729733049000,0.900049072265625,0.20059287548065186,-0.1287398487329483,0.4760931134223938
1700823729743112000,0.91011181640625,0.192651629447937,-0.20387627184391022,0.41806089878082275
1700823729753536000,0.920535888671875,0.1786017268896103,-0.2509129047393799,0.3643047511577606
1700823729763134000,0.930134033203125,0.14561499655246735,-0.23747386038303375,0.32643112540245056
1700823729772962000,0.939962158203125,0.11323914676904678,-0.20387627184391022,0.2946661114692688
1700823729783261000,0.950260986328125,0.11201741546392441,-0.13973543047904968,0.2482403665781021
1700823729792979000,0.95997900390625,0.1382846236228943,-0.022449297830462456,0.1578323096036911
1700823729803211000,0.9702109375,0.17493653297424316,0.055741455405950546,0.014278975315392017
1700823729813244000,0.980243896484375,0.22563834488391876,0.047800205647945404,-0.14637859165668488
1700823729822990000,0.989989990234375,0.2726749777793884,0.07590000331401825,-0.28932106494903564
1700823729833253000,1.000253173828125,0.27756190299987793,0.13026700913906097,-0.3638466000556946
1700823729843107000,1.010107177734375,0.25190556049346924,0.27809640765190125,-0.3577379584312439
1700823729853077000,1.020076904296875,0.19998200237751007,0.32879820466041565,-0.18791742622852325
1700823729863044000,1.030044189453125,0.1938733607530594,0.30253100395202637,-0.12255483865737915
1700823729873062000,1.040061767578125,0.21769709885120392,0.26404649019241333,-0.11888964474201202
1700823729883167000,1.0501669921875,0.25251641869544983,0.16325373947620392,-0.14698944985866547
1700823729892997000,1.0599970703125,0.26106852293014526,0.11560624837875366,-0.17264579236507416
1700823729902930000,1.069929931640625,0.24518603086471558,0.168751522898674,-0.2056325078010559
1700823729913022000,1.08002197265625,0.19570595026016235,0.30925053358078003,-0.24778221547603607
1700823729923110000,1.09010986328125,0.14011721312999725,0.4521929919719696,-0.2361757755279541
1700823729933212000,1.1002119140625,0.11201741546392441,0.5438227653503418,-0.13110695779323578
1700823729943123000,1.110123046875,0.08330674469470978,0.6110179424285889,-0.008323038928210735
1700823729953118000,1.120117919921875,0.06559165567159653,0.57436603307724,0.05032002553343773
1700823729963202000,1.1302021484375,0.0973566472530365,0.43386703729629517,-0.008323038928210735
1700823729973179000,1.140178955078125,0.16210836172103882,0.23839016258716583,-0.1359938681125641
1700823729983021000,1.15002099609375,0.21281017363071442,0.058184914290905,-0.24045182764530182
1700823729993045000,1.160044921875,0.21525363624095917,-0.013897184282541275,-0.26488643884658813
1700823730003129000,1.170129150390625,0.1724930703639984,-0.02122756652534008,-0.2056325078010559
1700823730013109000,1.18010888671875,0.10651962459087372,-0.0029016099870204926,-0.1201113760471344
1700823730023091000,1.190091064453125,0.03871358558535576,0.012980886735022068,-0.07124216109514236
1700823730033192000,1.20019189453125,-0.0071013085544109344,0.06123924255371094,-0.06879869848489761
1700823730043069000,1.21006884765625,-0.03459024429321289,0.1999056488275528,-0.07246389240026474
1700823730053005000,1.220005126953125,-0.03459024429321289,0.4265366494655609,-0.03214678168296814
1700823730063154000,1.23015380859375,0.014278975315392017,0.5994115471839905,0.06620252132415771
1700823730073023000,1.24002294921875,0.0869719386100769,0.5633704662322998,0.16210836172103882
1700823730083256000,1.250256103515625,0.13584116101264954,0.2597704529762268,0.18165604770183563
1700823730093196000,1.260196044921875,0.13400855660438538,-0.1189660057425499,0.10651962459087372
1700823730103072000,1.270072021484375,0.0924697294831276,-0.3865249752998352,-0.035811975598335266
1700823730113108000,1.28010791015625,0.03321579843759537,-0.48487427830696106,-0.18180876970291138
1700823730123026000,1.29002587890625,-0.013209961354732513,-0.4622722864151001,-0.2709950804710388
1700823730133145000,1.30014501953125,-0.01748601719737053,-0.35903605818748474,-0.2618321180343628
1700823730143218000,1.310218017578125,0.01061378326267004,-0.20693060755729675,-0.18791742622852325
1700823730152934000,1.319933837890625,0.039935316890478134,-0.04138612002134323,-0.09262244403362274
1700823730162946000,1.329946044921875,0.03627012297511101,0.09666942805051804,0.022831087931990623
1700823730173228000,1.34022802734375,0.013057244941592216,0.20601430535316467,0.27206411957740784
1700823730182962000,1.3499619140625,-0.008933904580771923,0.23167064785957336,0.3588069677352905
1700823730193154000,1.360154052734375,-0.041920628398656845,0.2817615866661072,0.3753003478050232
1700823730202960000,1.3699599609375,-0.08162686973810196,0.29764407873153687,0.3142138123512268
1700823730212952000,1.3799521484375,-0.08407033234834671,0.26282477378845215,0.18532124161720276
1700823730222960000,1.389960205078125,-0.048029281198978424,0.18707747757434845,0.03443752974271774
1700823730233122000,1.4001220703125,0.005726861767470837,0.12049316614866257,-0.07307475805282593
1700823730243008000,1.410008056640625,0.05642867833375931,0.08200865983963013,-0.11644618958234787
1700823730253088000,1.420087890625,0.09369145333766937,0.098502017557621,-0.12438743561506271
1700823730263118000,1.4301181640625,0.11995866149663925,0.16814066469669342,-0.09140071272850037
1700823730273198000,1.440197998046875,0.13400855660438538,0.25244006514549255,-0.013209961354732513
1700823730283122000,1.450121826171875,0.1370628923177719,0.2817615866661072,0.07658722996711731
1700823730293002000,1.460001953125,0.10896308720111847,0.33368512988090515,0.11690433323383331
1700823730303016000,1.470015869140625,0.0771980956196785,0.4631885588169098,0.20731239020824432
1700823730313115000,1.480114990234375,0.004505131393671036,0.41493022441864014,0.25251641869544983
1700823730323129000,1.490129150390625,-0.05719225853681564,0.2292271852493286,0.1987602859735489
1700823730333135000,1.500135009765625,-0.08284860104322433,0.00809396430850029,0.07597636431455612
1700823730343001000,1.5100009765625,-0.08162686973810196,-0.16661348938941956,-0.06085744872689247
1700823730353022000,1.52002197265625,-0.08407033234834671,-0.2557998299598694,-0.17081318795681
1700823730363088000,1.530087890625,-0.12316570430994034,-0.3920227587223053,-0.2624429762363434
1700823730372932000,1.53993212890625,-0.21968241035938263,-0.5740606188774109,-0.34063372015953064
1700823730383172000,1.550172119140625,-0.32475122809410095,-0.6039929986000061,-0.39011383056640625
1700823730393183000,1.560182861328125,-0.3876703679561615,-0.48915034532546997,-0.35407277941703796
1700823730403197000,1.570197021484375,-0.363235741853714,-0.3119994103908539,-0.26427558064460754
1700823730413218000,1.580218017578125,-0.30214923620224,-0.12140946835279465,-0.15798501670360565
1700823730422977000,1.58997705078125,-0.21479548513889313,0.038026362657547,-0.0492510087788105
1700823730433139000,1.600138916015625,-0.10117455571889877,0.17669276893138885,0.072311170399189
1700823730442974000,1.609973876953125,0.04970915988087654,0.16691893339157104,0.2079232633113861
1700823730453229000,1.62022900390625,0.22136229276657104,-0.2612976133823395,0.325209379196167
1700823730463208000,1.6302080078125,0.3746894598007202,-1.1745411157608032,0.23663392663002014
1700823730473174000,1.640174072265625,0.4602105915546417,-2.387108564376831,-0.21846067905426025
1700823730483217000,1.650216796875,0.44432809948921204,-1.5972598791122437,-0.292375385761261
1700823730493229000,1.66022900390625,0.506025493144989,-1.3480268716812134,-0.34979671239852905
1700823730503205000,1.670205078125,0.6355289220809937,-2.0114264488220215,-0.44631341099739075
1700823730513228000,1.68022802734375,0.7002806663513184,-1.9210184812545776,-0.5599343776702881
1700823730522981000,1.689981201171875,0.5921574831008911,-0.7402159571647644,-0.7303657531738281
1700823730533217000,1.700217041015625,0.2726749777793884,0.7875580191612244,-1.07061767578125
1700823730543080000,1.710079833984375,-0.21907155215740204,1.818698525428772,-1.5018885135650635
1700823730553015000,1.72001513671875,-0.6607271432876587,2.0703749656677246,-1.8818467855453491
1700823730562931000,1.729930908203125,-0.8183303475379944,1.8651243448257446,-2.117640733718872
1700823730573165000,1.7401650390625,-0.6167448163032532,1.687362551689148,-2.013793706893921
1700823730583047000,1.750046875,-0.22701279819011688,1.3251193761825562,-1.7468454837799072
1700823730593144000,1.76014404296875,0.057039543986320496,0.5920811295509338,-1.584355354309082
1700823730603138000,1.770137939453125,0.07353290170431137,-0.1189660057425499,-1.6442201137542725
1700823730613238000,1.780238037109375,-0.11033753305673599,-0.6620252132415771,-1.9508745670318604
1700823730623212000,1.7902119140625,-0.3742313086986542,-0.9332493543624878,-2.3778693675994873
1700823730633106000,1.80010595703125,-0.6503424048423767,-0.7664831876754761,-2.767601251602173
1700823730643174000,1.810173828125,-0.8922450542449951,-0.508087158203125,-3.057762384414673
1700823730653152000,1.820152099609375,-1.0205267667770386,-0.22892175614833832,-3.135953187942505
1700823730663217000,1.830216796875,-0.9588293433189392,0.13698652386665344,-2.9850692749023438
1700823730673207000,1.84020703125,-0.7199810743331909,0.3727805018424988,-2.731560230255127
1700823730683291000,1.850290771484375,-0.35529449582099915,0.43936482071876526,-2.379701852798462
1700823730692990000,1.859989990234375,0.04909829422831535,0.29886582493782043,-1.9563722610473633
1700823730703258000,1.870258056640625,0.38690677285194397,0.08750644326210022,-1.4921146631240845
1700823730713261000,1.880260986328125,0.515188455581665,0.05513058975338936,-1.0083094835281372
1700823730723319000,1.890319091796875,0.44921502470970154,0.20784689486026764,-0.4878522455692291
1700823730733250000,1.90025,0.2836705446243286,0.22861631214618683,-0.012599095702171326
1700823730743007000,1.910007080078125,0.10102184116840363,0.04108068719506264,0.34292447566986084
1700823730753258000,1.920258056640625,-0.044974952936172485,-0.09758572280406952,0.5836054086685181
1700823730763265000,1.93026513671875,-0.130496084690094,-0.11163562536239624,0.6843981742858887
1700823730773236000,1.940236083984375,-0.16959145665168762,-0.11224649101495743,0.6349180936813354
1700823730783179000,1.950178955078125,-0.15859588980674744,0.07162395119667053,0.2738966941833496
1700823730793106000,1.96010595703125,-0.13843733072280884,0.5132794976234436,0.05093089118599892
1700823730803177000,1.970177001953125,-0.1909717470407486,0.926224410533905,-0.051083605736494064
1700823730813191000,1.98019091796875,-0.29359710216522217,1.059393048286438,0.011835514567792416
1700823730823118000,1.9901181640625,-0.3565162420272827,0.8797986507415771,0.15416711568832397
1700823730833073000,2.000072998046875,-0.3424663245677948,0.5053382515907288,0.26229026913642883
1700823730843084000,2.010083984375,-0.3333033621311188,0.04841107130050659,0.28672486543655396
1700823730853169000,2.0201689453125,-0.3687335252761841,-0.32910364866256714,0.23724478483200073
1700823730863266000,2.03026611328125,-0.401720255613327,-0.517250120639801,0.1633300930261612
1700823730873146000,2.04014599609375,-0.3931681513786316,-0.5441282391548157,0.10896308720111847
1700823730883167000,2.0501669921875,-0.3571271002292633,-0.5416847467422485,0.1175151988863945
1700823730893151000,2.06015087890625,-0.30886873602867126,-0.5545129179954529,0.1883755773305893
1700823730903329000,2.0703291015625,-0.2661081850528717,-0.5233588218688965,0.2598468065261841
1700823730913312000,2.08031201171875,-0.2410627007484436,-0.3926336467266083,0.2751184403896332
1700823730923168000,2.09016796875,-0.20929770171642303,-0.17027868330478668,0.22747094929218292
1700823730933320000,2.10031982421875,-0.1604284793138504,0.019089538604021072,0.14072808623313904
1700823730943197000,2.110197021484375,-0.12805262207984924,0.14065171778202057,0.08147415518760681
1700823730953418000,2.12041796875,-0.12072224169969559,0.2542726695537567,0.12118039280176163
1700823730963214000,2.130214111328125,-0.1152244582772255,0.3349068760871887,0.2647337317466736
1700823730973154000,2.140154052734375,-0.10300715267658234,0.3196352422237396,0.4626540541648865
1700823730983419000,2.1504189453125,-0.06085744872689247,0.23228150606155396,0.6257550716400146
1700823730993237000,2.160237060546875,0.0619264654815197,0.2444988191127777,0.7100545167922974
1700823731003336000,2.1703359375,0.22197316586971283,0.380721777677536,0.6611852645874023
1700823731013367000,2.180366943359375,0.33131805062294006,0.483957976102829,0.444938987493515
1700823731023239000,2.190239013671875,0.38385245203971863,0.47418415546417236,0.1627192348241806
1700823731033404000,2.20040380859375,0.37713292241096497,0.41370847821235657,-0.07551821321249008
1700823731043313000,2.21031298828125,0.3300963044166565,0.40393465757369995,-0.22273674607276917
1700823731053007000,2.220007080078125,0.29161179065704346,0.43997567892074585,-0.29481884837150574
1700823731063153000,2.23015283203125,0.2677880525588989,0.461355984210968,-0.3271946907043457
1700823731073056000,2.240055908203125,0.29100093245506287,0.4680754840373993,-0.2679407596588135
1700823731083088000,2.250087890625,0.3814089894294739,0.3605632185935974,-0.06635523587465286
1700823731093046000,2.2600458984375,0.5261840224266052,0.06673702597618103,0.487088680267334
1700823731103157000,2.270156982421875,0.4852560758590698,-0.1287398487329483,0.7002806663513184
1700823731113151000,2.28015087890625,0.43821945786476135,0.11621711403131485,0.8444448709487915
1700823731123163000,2.290162841796875,0.4046218693256378,0.3251330256462097,0.923246443271637
1700823731133151000,2.30015087890625,0.38263070583343506,0.3459024429321289,0.9476810693740845
1700823731143168000,2.31016796875,0.35269832611083984,0.21395555138587952,0.9299659729003906
1700823731153235000,2.32023486328125,0.3081051707267761,0.07712173461914062,0.8536078333854675
1700823731163212000,2.3302119140625,0.24274258315563202,0.035582900047302246,0.6990588903427124
1700823731173222000,2.340221923828125,0.1779908537864685,0.1235474944114685,0.49869510531425476
1700823731183206000,2.350205810546875,0.16394096612930298,0.2603813111782074,0.28672486543655396
1700823731193219000,2.360218994140625,0.20059287548065186,0.3300199508666992,0.152334526181221
1700823731203234000,2.370234130859375,0.24274258315563202,0.27259862422943115,0.11934779584407806
1700823731213011000,2.380010986328125,0.2604576647281647,0.12049316614866257,0.15661057829856873
1700823731222964000,2.3899638671875,0.23968824744224548,-0.057879481464624405,0.223194882273674
1700823731232992000,2.399991943359375,0.19998200237751007,-0.23197607696056366,0.28611400723457336
1700823731242945000,2.409945068359375,0.1786017268896103,-0.3675881624221802,0.325209379196167
1700823731252940000,2.41993994140625,0.16577355563640594,-0.4127921760082245,0.3300963044166565
1700823731263122000,2.430121826171875,0.13034337759017944,-0.3767511546611786,0.2934443950653076
1700823731273063000,2.44006298828125,0.0668133869767189,-0.27840182185173035,0.223194882273674
1700823731283094000,2.450093994140625,-0.035811975598335266,-0.10613783448934555,0.15050192177295685
1700823731293021000,2.46002099609375,-0.10606148093938828,0.11743884533643723,0.10529789328575134
1700823731303092000,2.470092041015625,-0.10728321224451065,0.3666718602180481,0.13889548182487488
1700823731313111000,2.480111083984375,-0.06757696717977524,0.5450445413589478,0.25618159770965576
1700823731322928000,2.48992822265625,-0.008323038928210735,0.5890268087387085,0.4143957197666168
1700823731333077000,2.500076904296875,0.052152618765830994,0.5731443166732788,0.5591707825660706
1700823731343149000,2.510149169921875,0.09430231899023056,0.5768095254898071,0.629420280456543
1700823731353093000,2.520093017578125,0.0924697294831276,0.5688682794570923,0.6227007508277893
1700823731363025000,2.53002490234375,0.052152618765830994,0.5022839307785034,0.5683337450027466
1700823731373137000,2.540136962890625,-0.027870727702975273,0.4821254014968872,0.5103015303611755
1700823731383055000,2.55005517578125,-0.13293954730033875,0.6165157556533813,0.496862530708313
1700823731393146000,2.56014599609375,-0.2154063582420349,0.6934847831726074,0.5267949104309082
1700823731403142000,2.570141845703125,-0.220904141664505,0.6183483600616455,0.5793293118476868
1700823731413229000,2.58022900390625,-0.14821118116378784,0.4576907753944397,0.48831039667129517
1700823731423088000,2.590088134765625,-0.09750936180353165,0.35934147238731384,0.3099377453327179
1700823731433189000,2.600189208984375,-0.07002042979001999,0.21273382008075714,0.0973566472530365
1700823731443105000,2.61010498046875,-0.05535966157913208,0.01725694350898266,-0.09812022745609283
1700823731453232000,2.620232177734375,-0.07185302674770355,-0.13057245314121246,-0.22701279819011688
1700823731463246000,2.63024609375,-0.10911580175161362,-0.20815233886241913,-0.26427558064460754
1700823731472980000,2.63997998046875,-0.12316570430994034,-0.2741257846355438,-0.22762365639209747
1700823731483231000,2.65023095703125,-0.08040513843297958,-0.37980547547340393,-0.1860848218202591
1700823731493258000,2.660258056640625,0.006337726954370737,-0.48059824109077454,-0.22945626080036163
1700823731503260000,2.670260009765625,0.05276348441839218,-0.4537201523780823,-0.3473532497882843
1700823731513254000,2.68025390625,0.04787656292319298,-0.3266601860523224,-0.44509169459342957
1700823731523097000,2.69009716796875,0.013057244941592216,-0.2503020465373993,-0.42615485191345215
1700823731533264000,2.700263916015625,-0.01687515154480934,-0.28756481409072876,-0.28993192315101624
1700823731543196000,2.71019580078125,-0.010766499675810337,-0.3761402666568756,-0.10300715267658234
1700823731553170000,2.720169921875,0.018555032089352608,-0.4867068827152252,0.05520694702863693
1700823731563285000,2.730284912109375,0.033826664090156555,-0.5881105065345764,0.12484558671712875
1700823731572974000,2.73997412109375,0.022220224142074585,-0.6913467645645142,0.08880453556776047
1700823731583216000,2.750216064453125,0.01061378326267004,-0.7634288668632507,-0.004657847341150045
1700823731593029000,2.760029052734375,0.00939205288887024,-0.8013024926185608,-0.11339186131954193
1700823731603104000,2.77010400390625,-0.03703370690345764,-0.9002626538276672,-0.20990857481956482
1700823731612951000,2.779950927734375,-0.12438743561506271,-1.095739483833313,-0.292375385761261
1700823731622938000,2.789938232421875,-0.2111303061246872,-1.278388261795044,-0.36445748805999756
1700823731633062000,2.800061767578125,-0.24350616335868835,-1.326035737991333,-0.4322635233402252
1700823731643051000,2.810051025390625,-0.23251058161258698,-1.1525499820709229,-0.4683045744895935
1700823731653125000,2.820125,-0.18852828443050385,-0.9002626538276672,-0.453643798828125
1700823731663199000,2.830198974609375,-0.13232868909835815,-0.7383833527565002,-0.3931681513786316
1700823731673138000,2.840137939453125,-0.0944550409913063,-0.7683157324790955,-0.29420796036720276
1700823731683066000,2.850066162109375,-0.13782647252082825,-0.9069821834564209,-0.18425223231315613
1700823731693290000,2.8602900390625,-0.25999951362609863,-1.020603060722351,-0.09017898142337799
1700823731703261000,2.870260986328125,-0.3840051591396332,-1.1433870792388916,-0.026648996397852898
1700823731713222000,2.880221923828125,-0.43470698595046997,-1.2893837690353394,-0.06635523587465286
1700823731723163000,2.890162841796875,-0.3528510332107544,-1.2533427476882935,-0.18180876970291138
1700823731733157000,2.9001572265625,-0.23984096944332123,-0.9961684942245483,-0.33880114555358887
1700823731743201000,2.910200927734375,-0.15248723328113556,-0.773202657699585,-0.501902163028717
1700823731753096000,2.920095947265625,-0.12255483865737915,-0.6742424964904785,-0.5886450409889221
1700823731763030000,2.930030029296875,-0.1359938681125641,-0.8000807762145996,-0.5739842653274536
1700823731773229000,2.94022900390625,-0.18913915753364563,-1.203251838684082,-0.4780784249305725
1700823731783026000,2.95002587890625,-0.2777146100997925,-1.6998852491378784,-0.38033998012542725
1700823731792934000,2.959933837890625,-0.37545305490493774,-2.09389328956604,-0.35529449582099915
1700823731803039000,2.9700390625,-0.4573090076446533,-2.3522894382476807,-0.43592870235443115
1700823731813072000,2.98007177734375,-0.5006804466247559,-2.4304800033569336,-0.586201548576355
1700823731823080000,2.990079833984375,-0.5122868418693542,-2.328465700149536,-0.7438048124313354
1700823731833122000,3.0001220703125,-0.5263367891311646,-2.146427869796753,-0.8531496524810791
1700823731843084000,3.010083984375,-0.5880341529846191,-2.099391222000122,-0.8873581290245056
1700823731853193000,3.02019287109375,-0.7071529030799866,-2.2905919551849365,-0.8378780484199524
1700823731863193000,3.030193115234375,-0.8213846683502197,-2.6302330493927,-0.7230353951454163
1700823731873180000,3.040179931640625,-0.909349262714386,-2.817157745361328,-0.6466771960258484
1700823731883207000,3.05020703125,-0.9649379849433899,-2.669328451156616,-0.6369034051895142
1700823731894047000,3.061046875,-0.9765444397926331,-2.205070734024048,-0.6167448163032532
1700823731903320000,3.070320068359375,-0.9246209263801575,-1.621694564819336,-0.5379431843757629
1700823731913280000,3.080280029296875,-0.9319512844085693,-1.3730723857879639,-0.5153411626815796
1700823731923337000,3.0903369140625,-0.9545533061027527,-1.517236590385437,-0.6191883087158203
1700823731933275000,3.10027490234375,-0.8769733905792236,-1.8733710050582886,-0.8189412355422974
1700823731943083000,3.1100830078125,-0.6277403831481934,-2.183079719543457,-1.0626764297485352
1700823731953102000,3.12010205078125,-0.25389087200164795,-2.1623103618621826,-1.280144453048706
1700823731963156000,3.130156005859375,0.1077413558959961,-1.7145460844039917,-1.4542410373687744
1700823731973144000,3.14014404296875,0.2702315151691437,-0.5099197626113892,-1.537929654121399
1700823731983525000,3.150525146484375,0.16516269743442535,0.5334380865097046,-1.510440707206726
1700823731993073000,3.160072998046875,-0.14149166643619537,0.9830349087715149,-1.4652366638183594
1700823732003180000,3.170179931640625,-0.6124687790870667,1.2731958627700806,-1.4438563585281372
1700823732013192000,3.18019189453125,-1.137812852859497,1.4729487895965576,-1.487838625907898
1700823732023104000,3.19010400390625,-1.5831336975097656,1.5670220851898193,-1.6265050172805786
1700823732033305000,3.20030517578125,-1.9349920749664307,1.7062993049621582,-2.055943250656128
1700823732043240000,3.210239990234375,-1.8378643989562988,1.7661641836166382,-2.1866683959960938
1700823732052974000,3.21997412109375,-1.5391513109207153,1.716684103012085,-2.080988883972168
1700823732062994000,3.229993896484375,-1.1854603290557861,1.5658003091812134,-1.718134880065918
1700823732072979000,3.23997900390625,-0.8531496524810791,1.295186996459961,-1.1903473138809204
1700823732083138000,3.250137939453125,-0.6430120468139648,0.965319812297821,-0.8268824815750122
1700823732093168000,3.260168212890625,-0.6088035702705383,0.7338019013404846,-0.825049877166748
1700823732103026000,3.27002587890625,-0.6784422397613525,0.6378960609436035,-0.9881508946418762
1700823732113204000,3.280203857421875,-0.9594402313232422,0.8834638595581055,-1.1567497253417969
1700823732122944000,3.289944091796875,-1.5049428939819336,1.1589640378952026,-1.3070225715637207
1700823732133063000,3.30006298828125,-2.11519718170166,1.2554807662963867,-1.5000559091567993
1700823732143096000,3.310095947265625,-2.578233242034912,1.1980594396591187,-1.6558265686035156
1700823732153028000,3.320028076171875,-2.8506789207458496,1.0929906368255615,-1.7511216402053833
1700823732163138000,3.330137939453125,-2.890996217727661,1.147357702255249,-1.7236326932907104
1700823732173030000,3.34002978515625,-2.778596878051758,1.3477214574813843,-1.5586990118026733
1700823732183111000,3.35011083984375,-2.5818982124328613,1.4656184911727905,-1.3253484964370728
1700823732193044000,3.3600439453125,-2.4084126949310303,1.4650075435638428,-1.110934853553772
1700823732203329000,3.3703291015625,-2.3454935550689697,1.4558446407318115,-0.9563859105110168
1700823732213024000,3.38002392578125,-2.4065799713134766,1.4888312816619873,-0.8507062196731567
1700823732223094000,3.390093994140625,-2.581287384033203,1.5676329135894775,-0.7273114323616028
1700823732233130000,3.4001298828125,-2.7749316692352295,1.582904577255249,-0.5635995268821716
1700823732243068000,3.41006787109375,-2.826855182647705,1.5279266834259033,-0.40660718083381653
1700823732253309000,3.420308837890625,-2.658867359161377,1.5315918922424316,-0.33941200375556946
1700823732263124000,3.4301240234375,-2.3002893924713135,1.5126550197601318,-0.31436651945114136
1700823732272955000,3.439954833984375,-1.8671859502792358,1.3886494636535645,-0.292375385761261
1700823732283141000,3.45014111328125,-1.422476053237915,1.2793045043945312,-0.25022566318511963
1700823732293090000,3.460090087890625,-1.1335368156433105,1.2218831777572632,-0.16714800894260406
1700823732302938000,3.469938232421875,-1.003422498703003,1.1858421564102173,-0.1249983012676239
1700823732313091000,3.480091064453125,-0.8812494874000549,1.2011138200759888,-0.25877779722213745
1700823732323000000,3.49,-0.6992116570472717,1.0514518022537231,-0.5049564838409424
1700823732333091000,3.500091064453125,-0.4475351572036743,0.6464481353759766,-0.7132615447044373
1700823732343090000,3.51008984375,-0.46036332845687866,-0.40912699699401855,-0.6515641212463379
1700823732352984000,3.519984130859375,-0.5037347674369812,-0.7597636580467224,-0.45547640323638916
1700823732363105000,3.53010498046875,-0.5910884737968445,-0.935081958770752,-0.2361757755279541
1700823732372979000,3.53997900390625,-0.7150941491127014,-0.9711230397224426,0.006337726954370737
1700823732383256000,3.550256103515625,-0.8305476307868958,-0.8636107444763184,0.2586250603199005
1700823732393236000,3.560236083984375,-0.8592583537101746,-0.7194465398788452,0.4308890700340271
1700823732402992000,3.5699921875,-0.8366563320159912,-0.7805330753326416,0.45837801694869995
1700823732412985000,3.579985107421875,-0.767017662525177,-0.935081958770752,0.4198935031890869
1700823732423044000,3.590044189453125,-0.6228534579277039,-1.0468703508377075,0.3789655268192291
1700823732433011000,3.600010986328125,-0.4744132161140442,-1.1470521688461304,0.33131805062294006
1700823732443192000,3.610192138671875,-0.41088324785232544,-1.1910345554351807,0.32704198360443115
1700823732453223000,3.620222900390625,-0.4793001413345337,-1.1586586236953735,0.4247804284095764
1700823732462958000,3.6299580078125,-0.6417902708053589,-1.2350168228149414,0.5506186485290527
1700823732472995000,3.6399951171875,-0.7792350053787231,-1.3180944919586182,0.6349180936813354
1700823732483065000,3.650065185546875,-0.8421540856361389,-1.4469870328903198,0.677678644657135
1700823732493164000,3.6601640625,-0.9044623374938965,-1.571603536605835,0.8310058116912842
1700823732503083000,3.6700830078125,-0.889801561832428,-1.1592695713043213,0.9702830910682678
1700823732513074000,3.680073974609375,-0.5916993618011475,-0.18188512325286865,0.7137196660041809
1700823732523068000,3.69006787109375,-0.33452507853507996,0.2041817009449005,0.039935316890478134
1700823732533191000,3.70019091796875,-0.24045182764530182,0.27870726585388184,-0.2569451928138733
1700823732542980000,3.70997998046875,-0.2819906771183014,0.06979135423898697,-0.22212587296962738
1700823732552993000,3.719992919921875,-0.2709950804710388,-0.07376197725534439,-0.2716059684753418
1700823732563106000,3.73010595703125,-0.12316570430994034,-0.33460143208503723,-0.2679407596588135
1700823732573247000,3.7402470703125,0.016111571341753006,-0.8660541772842407,-0.1958586722612381
1700823732583281000,3.750281005859375,0.10102184116840363,-1.7841846942901611,-0.1604284793138504
1700823732592998000,3.759997802734375,0.23785565793514252,-2.707813024520874,-0.24961480498313904
1700823732603019000,3.77001904296875,0.30627256631851196,-3.316845655441284,-0.4799109995365143
1700823732613153000,3.780153076171875,0.3239876627922058,-3.3962581157684326,-0.7352526783943176
1700823732623195000,3.79019482421875,0.31115949153900146,-2.9093985557556152,-0.8091673851013184
1700823732633027000,3.800027099609375,0.1272890418767929,-1.9643899202346802,-0.6601162552833557
1700823732643047000,3.810046875,-0.12866349518299103,-1.0175487995147705,-0.4078288972377777
1700823732653157000,3.8201572265625,-0.48663052916526794,0.17791450023651123,0.3789655268192291
1700823732663007000,3.830007080078125,-0.4597524404525757,0.4778493344783783,0.7033349871635437
1700823732673084000,3.840083984375,-0.5061782002449036,0.00015271631127689034,0.8743772506713867
1700823732683128000,3.850128173828125,-0.6491206884384155,-0.6827946305274963,0.7186065912246704
1700823732693087000,3.8600869140625,-0.7157049775123596,-0.8068002462387085,0.3704134225845337
1700823732703034000,3.8700341796875,-0.7309766411781311,-0.640644907951355,0.0014508049935102463
1700823732713185000,3.88018505859375,-0.7590764164924622,-0.4622722864151001,-0.330859899520874
1700823732723035000,3.890034912109375,-0.8012261390686035,-0.36392298340797424,-0.5672647356987
1700823732733066000,3.90006591796875,-0.7908414006233215,-0.3523165285587311,-0.6668357849121094
1700823732743113000,3.910113037109375,-0.7694611549377441,-0.33887749910354614,-0.6619488596916199
1700823732753275000,3.92027490234375,-0.8299368023872375,-0.27290403842926025,-0.5941427946090698
1700823732763251000,3.9302509765625,-1.0180833339691162,-0.3877467215061188,-0.5110651254653931
1700823732773235000,3.94023486328125,-1.288085699081421,-0.5636758804321289,-0.4218788146972656
1700823732783085000,3.9500849609375,-1.5837445259094238,-0.7457137703895569,-0.3180317282676697
1700823732793166000,3.960166015625,-1.8769598007202148,-1.2166908979415894,-0.2154063582420349
1700823732803351000,3.97035107421875,-2.078545331954956,-1.859321117401123,-0.16775886714458466
1700823732813258000,3.980258056640625,-2.06144118309021,-2.389552116394043,-0.19708040356636047
1700823732823306000,3.990305908203125,-1.8726837635040283,-2.6778805255889893,-0.22945626080036163
1700823732833373000,4.000373046875,-1.708361029624939,-2.638174295425415,-0.22029328346252441
1700823732843371000,4.01037109375,-1.7401260137557983,-2.409710645675659,-0.14821118116378784
1700823732853274000,4.020274169921875,-1.9606484174728394,-2.249664068222046,0.02710714563727379
1700823732863369000,4.030368896484375,-2.1182515621185303,-2.0285308361053467,0.2531272768974304
1700823732873317000,4.040317138671875,-1.9801959991455078,-1.3791810274124146,0.36674821376800537
1700823732883171000,4.050171142578125,-1.535486102104187,-0.5477933883666992,0.29649871587753296
1700823732893157000,4.0601572265625,-1.0364092588424683,-0.48426342010498047,-0.030925052240490913
1700823732903028000,4.070028076171875,-0.605749249458313,-1.0334312915802002,-0.473191499710083
1700823732913095000,4.080094970703125,-0.10117455571889877,-1.6742289066314697,-0.8226063847541809
1700823732923003000,4.0900029296875,0.4412737786769867,-2.233781576156616,-0.8232172727584839
1700823732933062000,4.100061767578125,0.8114581108093262,-2.4585797786712646,-0.5000695586204529
1700823732943133000,4.1101328125,0.9256899356842041,-2.141540765762329,-0.0492510087788105
1700823732953153000,4.120153076171875,0.7662540674209595,-1.5508341789245605,0.3404810130596161
1700823732963212000,4.1302119140625,0.06803511828184128,-1.4634803533554077,0.5793293118476868
1700823732973192000,4.14019189453125,-0.18303050100803375,-1.744478464126587,0.46448665857315063
1700823732983157000,4.150156982421875,-0.17631098628044128,-1.8507689237594604,0.30688342452049255
1700823732993524000,4.16052392578125,0.05887213721871376,-1.924683690071106,0.11079568415880203
1700823733003212000,4.1702119140625,0.36186128854751587,-2.0089831352233887,-0.06818783283233643
1700823733013235000,4.18023486328125,0.5768858790397644,-1.9869918823242188,-0.12622003257274628
1700823733023244000,4.190244140625,0.5897140502929688,-1.736537218093872,-0.018707748502492905
1700823733033162000,4.200161865234375,0.4699844419956207,-1.5221234560012817,0.1779908537864685
1700823733043116000,4.210115966796875,0.37835466861724854,-1.4091134071350098,0.3136029541492462
1700823733053148000,4.22014794921875,0.3661373555660248,-1.403004765510559,0.31787899136543274
1700823733063042000,4.2300419921875,0.3850741684436798,-1.3975069522857666,0.2531272768974304
1700823733072976000,4.239975830078125,0.41256311535835266,-1.307709813117981,0.2946661114692688
1700823733082953000,4.249952880859375,0.4113413989543915,-1.1562151908874512,0.29100093245506287
1700823733093116000,4.260115966796875,0.38385245203971863,-0.9778425693511963,0.20059287548065186
1700823733103009000,4.270009033203125,0.36369389295578003,-0.7701483368873596,0.10407616943120956
1700823733112965000,4.279965087890625,0.36369389295578003,-0.6687447428703308,-0.013820826075971127
1700823733122941000,4.28994091796875,0.37774381041526794,-0.6284276247024536,-0.11827878654003143
1700823733132919000,4.2999189453125,0.39790233969688416,-0.679129421710968,-0.15920674800872803
1700823733143137000,4.310136962890625,0.43760859966278076,-0.7945829629898071,-0.1146135926246643
1700823733152923000,4.3199228515625,0.4913647174835205,-0.9057604670524597,-0.04680754989385605
1700823733163065000,4.330065185546875,0.5463426113128662,-1.0352638959884644,-0.015042556449770927
1700823733173074000,4.340073974609375,0.619035542011261,-1.1366674900054932,0.0264962799847126
1700823733183137000,4.350136962890625,0.7137196660041809,-1.165378212928772,0.1272890418767929
1700823733193069000,4.360069091796875,0.8340601325035095,-1.1757628917694092,0.2433534413576126
1700823733203106000,4.37010595703125,1.05946946144104,-1.1898127794265747,0.3441462218761444
1700823733213093000,4.380093017578125,1.4058300256729126,-1.35535728931427,0.38385245203971863
1700823733223329000,4.3903291015625,1.8737528324127197,-1.7298176288604736,0.33864840865135193
1700823733233124000,4.4001240234375,2.4485769271850586,-2.2130119800567627,0.1627192348241806
1700823733243101000,4.410100830078125,2.8975629806518555,-2.7481300830841064,-0.13110695779323578
1700823733253036000,4.4200361328125,3.0508902072906494,-3.3870949745178223,-0.5275585055351257
1700823733263121000,4.430120849609375,2.7411813735961914,-4.016897201538086,-1.051069974899292
1700823733273116000,4.440115966796875,0.6514114141464233,-3.8898372650146484,-3.385186195373535
1700823733283089000,4.4500888671875,0.3899610936641693,-4.286288738250732,-2.960023880004883
1700823733293247000,4.4602470703125,0.5512295365333557,-3.3742668628692627,-1.9099465608596802
1700823733303069000,4.47006884765625,0.7033349871635437,-1.6045902967453003,-0.8965210914611816
1700823733313003000,4.4800029296875,0.5836054086685181,-0.3095559775829315,-0.1958586722612381
1700823733323139000,4.49013916015625,0.5017494559288025,0.251218318939209,0.04054617881774902
1700823733333253000,4.500253173828125,0.41806089878082275,0.32268956303596497,0.0973566472530365
1700823733343257000,4.510257080078125,0.36735907196998596,0.564592182636261,0.14622586965560913
1700823733353034000,4.520033935546875,0.4015675485134125,0.8932377099990845,0.264122873544693
1700823733363120000,4.5301201171875,0.2629011273384094,1.0893254280090332,0.31238120794296265
1700823733373227000,4.54022705078125,-0.04375322163105011,1.1192578077316284,0.33315062522888184
1700823733383210000,4.5502099609375,-0.24411702156066895,0.9879218339920044,0.3661373555660248
1700823733393002000,4.560001953125,-0.27466028928756714,0.755793035030365,0.3954588770866394
1700823733402951000,4.569950927734375,-0.25389087200164795,0.5511531829833984,0.40706533193588257
1700823733413197000,4.580197021484375,-0.2105194330215454,0.4112650156021118,0.3606395721435547
1700823733422984000,4.58998388671875,-0.08345946669578552,0.23900102078914642,0.26229026913642883
1700823733433231000,4.600231201171875,0.17004960775375366,0.014202617108821869,0.21281017363071442
1700823733443001000,4.6100009765625,0.35819610953330994,-0.26679539680480957,0.2036471962928772
1700823733452947000,4.619947021484375,0.3704134225845337,-0.275958389043808,0.17676913738250732
1700823733462955000,4.629955078125,0.32765284180641174,-0.021838432177901268,0.22563834488391876
1700823733473067000,4.64006689453125,0.30749428272247314,0.13515393435955048,0.35208746790885925
1700823733482982000,4.64998193359375,0.3814089894294739,0.04902193695306778,0.44432809948921204
1700823733493034000,4.660033935546875,0.4565454125404358,-0.13179416954517365,0.5145776271820068
1700823733502976000,4.66997607421875,0.5500078201293945,-0.3364340364933014,0.5628359913825989
1700823733513152000,4.680152099609375,0.5897140502929688,-0.49464812874794006,0.467540979385376
1700823733522974000,4.689973876953125,0.6123160719871521,-0.7414376735687256,0.27634015679359436
1700823733533192000,4.70019189453125,0.6801220774650574,-1.0279334783554077,0.1382846236228943
1700823733542972000,4.709971923828125,0.6978371739387512,-1.1971431970596313,0.03321579843759537
1700823733552954000,4.7199541015625,0.6538549065589905,-1.0144944190979004,-0.030314188450574875
1700823733563247000,4.7302470703125,0.5457317233085632,-0.6339253783226013,-0.05719225853681564
1700823733573229000,4.74022900390625,0.3606395721435547,-0.2612976133823395,-0.011377365328371525
1700823733583200000,4.750199951171875,-0.37972912192344666,-0.23258693516254425,-0.22273674607276917
1700823733593257000,4.760257080078125,-0.42493313550949097,-0.5410739183425903,-0.36018142104148865
1700823733603019000,4.77001904296875,-0.3626248836517334,-0.8006916046142578,-0.44631341099739075
1700823733612997000,4.7799970703125,-0.2929862439632416,-0.7884743213653564,-0.5104542970657349
1700823733622963000,4.789962890625,-0.3265838325023651,-0.6748533844947815,-0.5690973401069641
1700823733633129000,4.80012890625,-0.3785073757171631,-0.7426594495773315,-0.6680575013160706
1700823733643054000,4.81005419921875,-0.37484219670295715,-0.9558513760566711,-0.748691737651825
1700823733653051000,4.82005078125,-0.30031663179397583,-1.109789490699768,-0.7523568868637085
1700823733663037000,4.830036865234375,-0.16714800894260406,-1.0841331481933594,-0.6424011588096619
1700823733672994000,4.839994140625,-0.021762074902653694,-0.925308108329773,-0.501902163028717
1700823733683077000,4.8500771484375,0.04909829422831535,-0.6375905871391296,-0.35957056283950806
1700823733693039000,4.8600390625,0.05948300287127495,-0.4060726761817932,-0.21174116432666779
1700823733703019000,4.87001904296875,0.0038942659739404917,-0.346818745136261,-0.16959145665168762
1700823733713156000,4.880156005859375,-0.08895725011825562,-0.34315356612205505,-0.1811978965997696
1700823733723042000,4.8900419921875,-0.13171781599521637,-0.28878653049468994,-0.19280433654785156
1700823733733124000,4.9001240234375,-0.1610393524169922,-0.11957687139511108,-0.13110695779323578
1700823733743259000,4.9102587890625,-0.16775886714458466,0.1742493063211441,-0.041920628398656845
1700823733753167000,4.9201669921875,-0.20257818698883057,0.36789360642433167,0.07414376735687256
1700823733763378000,4.9303779296875,-0.2868776023387909,0.22128593921661377,0.19692768156528473
1700823733772983000,4.939983154296875,-0.5086216926574707,-0.18555031716823578,0.3893502354621887
1700823733783083000,4.9500830078125,-0.7651850581169128,-0.39385536313056946,0.4211152195930481
1700823733793138000,4.960137939453125,-0.8855255246162415,-0.5422956347465515,0.31604641675949097
1700823733803219000,4.970218994140625,-0.47013717889785767,-0.30344730615615845,0.20547980070114136
1700823733813260000,4.980260009765625,0.28183794021606445,0.1589776873588562,0.487088680267334
1700823733823303000,4.990302978515625,0.6843981742858887,0.5096143484115601,0.7790822386741638
1700823733833303000,5.000302978515625,0.5787184834480286,0.5090034604072571,0.8719337582588196
1700823733843312000,5.01031201171875,0.3355940878391266,0.4558582007884979,0.9348528981208801
1700823733853024000,5.02002392578125,0.1938733607530594,0.5053382515907288,0.9611201286315918
1700823733863065000,5.030065185546875,0.42722389101982117,0.5707008838653564,0.868268609046936
1700823733873141000,5.04014111328125,0.5640577077865601,0.4363104999065399,0.6892850995063782
1700823733883016000,5.050015869140625,0.17737999558448792,0.12660181522369385,0.5787184834480286
1700823733893185000,5.06018505859375,-0.956996738910675,0.28420504927635193,0.4663192629814148
1700823733902980000,5.06997998046875,-1.235551357269287,0.17730364203453064,0.3197115957736969
1700823733913114000,5.080114013671875,-1.2172253131866455,0.009926560334861279,0.12056952714920044
1700823733923215000,5.090215087890625,-1.091387152671814,-0.1837177276611328,-0.07551821321249008
1700823733933057000,5.10005712890625,-0.9850965738296509,-0.37797287106513977,-0.20379991829395294
1700823733942977000,5.10997705078125,-0.8733082413673401,-0.4824308156967163,-0.2679407596588135
1700823733953116000,5.120115966796875,-0.6876052021980286,-0.47510045766830444,-0.32963815331459045
1700823733963045000,5.130045166015625,-0.5232824683189392,-0.3828597962856293,-0.363235741853714
1700823733973091000,5.140091064453125,-0.444480836391449,-0.13118331134319305,-0.32352951169013977
1700823733982926000,5.149926025390625,-0.44020476937294006,0.17241671681404114,-0.23923009634017944
1700823733993070000,5.160070068359375,-0.41638103127479553,0.4283692538738251,-0.12622003257274628
1700823734003081000,5.1700810546875,-0.22029328346252441,0.4674646258354187,0.019165897741913795
1700823734012949000,5.179948974609375,0.07353290170431137,0.1992947906255722,0.21036672592163086
1700823734023188000,5.19018798828125,0.2903900742530823,0.003817907767370343,0.31238120794296265
1700823734032932000,5.19993212890625,0.3746894598007202,-0.15256360173225403,0.3148246705532074
1700823734043212000,5.2102119140625,0.4302782118320465,-0.3107776939868927,0.26167941093444824
1700823734052987000,5.21998681640625,0.5341253280639648,-0.33948835730552673,0.19570595026016235
1700823734063168000,5.23016796875,0.7424303293228149,-0.25274550914764404,0.08758280426263809
1700823734072968000,5.239968017578125,1.0600802898406982,-0.2099849283695221,0.02038762718439102
1700823734082987000,5.249987060546875,1.2934308052062988,-0.3150537610054016,0.05887213721871376
1700823734093004000,5.260004150390625,1.169425129890442,-0.4885394871234894,0.13584116101264954
1700823734103178000,5.270177978515625,0.799851655960083,-0.4665483236312866,0.1633300930261612
1700823734113185000,5.28018505859375,0.5970444083213806,-0.2142609804868698,0.20670153200626373
1700823734123111000,5.29011083984375,0.5017494559288025,0.07040221989154816,0.3203224539756775
1700823734133041000,5.300041015625,0.3588069677352905,0.2194533348083496,0.4143957197666168
1700823734143053000,5.310052978515625,0.18532124161720276,0.31841349601745605,0.4302782118320465
1700823734153097000,5.320096923828125,0.010002918541431427,0.5340489149093628,0.3453679382801056
1700823734163189000,5.33018896484375,-0.15126550197601318,0.9017898440361023,0.21586450934410095
1700823734173161000,5.340160888671875,-0.25022566318511963,1.3782646656036377,0.09063713252544403
1700823734183122000,5.350121826171875,-0.26916250586509705,1.8174768686294556,0.06498079001903534
1700823734193120000,5.3601201171875,-0.13843733072280884,1.9775235652923584,0.08941540122032166
1700823734203016000,5.370015869140625,0.07658722996711731,1.6965254545211792,0.1877647042274475
1700823734213012000,5.380011962890625,0.13095423579216003,0.6684392690658569,0.23113614320755005
1700823734223159000,5.390158935546875,0.21586450934410095,0.16264286637306213,0.29588785767555237
1700823734232989000,5.399989013671875,0.2738966941833496,-0.14156801998615265,0.38263070583343506
1700823734243039000,5.4100390625,0.3300963044166565,-0.29306259751319885,0.477314829826355
1700823734253248000,5.420248046875,0.29161179065704346,-0.3517056703567505,0.5310709476470947
1700823734263255000,5.430255126953125,0.17982345819473267,-0.23136521875858307,0.5481752157211304
1700823734273254000,5.44025390625,0.09308059513568878,-0.007788531947880983,0.49441906809806824
1700823734283192000,5.450192138671875,0.13584116101264954,0.22678372263908386,0.4357759952545166
1700823734293119000,5.460118896484375,0.3343723714351654,0.3397938013076782,0.4192826449871063
1700823734302987000,5.469987060546875,0.7021132707595825,0.29275718331336975,0.43883031606674194
1700823734313238000,5.480238037109375,0.9263007640838623,0.06979135423898697,0.4406629204750061
1700823734323151000,5.490151123046875,0.981889545917511,-0.11468994617462158,0.3954588770866394
1700823734333000000,5.5,1.0362565517425537,-0.2399173229932785,0.34353533387184143
1700823734343153000,5.51015283203125,1.411327838897705,-0.4720461070537567,0.3594178259372711
1700823734353216000,5.520216064453125,1.6788867712020874,-1.002277135848999,0.4046218693256378
1700823734363161000,5.5301611328125,1.1572078466415405,-1.5477797985076904,0.5432882905006409
1700823734373147000,5.54014697265625,0.8358927369117737,-1.7469218969345093,0.7662540674209595
1700823734382973000,5.549972900390625,0.6611852645874023,-1.7316502332687378,0.69661545753479
1700823734393000000,5.56,0.32765284180641174,-1.3119858503341675,0.4767039716243744
1700823734403478000,5.57047802734375,-0.038866300135850906,-0.5410739183425903,0.254349023103714
1700823734413127000,5.580126953125,-0.3009274899959564,0.1791362315416336,-0.011988230049610138
1700823734423153000,5.59015283203125,-0.44997861981391907,0.7521278262138367,-0.25450173020362854
1700823734433000000,5.6,-0.4988478422164917,1.2957979440689087,-0.4279874563217163
1700823734443089000,5.6100888671875,-0.35590535402297974,1.7356208562850952,-0.5697082281112671
1700823734453197000,5.620197021484375,-0.12622003257274628,1.9555323123931885,-0.5916993618011475
1700823734463152000,5.630152099609375,0.018555032089352608,1.9365955591201782,-0.3943898677825928
1700823734473004000,5.640004150390625,0.014278975315392017,1.7527251243591309,-0.24900394678115845
1700823734483015000,5.650014892578125,-0.2062433809041977,1.7014124393463135,-0.45181119441986084
1700823734492996000,5.65999609375,-0.31436651945114136,1.8303049802780151,-0.7755697965621948
1700823734503255000,5.670255126953125,-0.17142406105995178,1.7594445943832397,-0.9466120600700378
1700823734513160000,5.680159912109375,0.2085341215133667,1.5835154056549072,-0.9802096486091614
1700823734523006000,5.690005859375,0.3856850564479828,1.5712981224060059,-0.957607626914978
1700823734533037000,5.700037109375,0.658130943775177,1.2738068103790283,-0.76762855052948
1700823734542971000,5.709970947265625,0.9556223154067993,0.9017898440361023,-0.5984188914299011
1700823734553153000,5.720153076171875,1.0185414552688599,0.6794348955154419,-0.5684864521026611
1700823734563235000,5.730235107421875,0.8835402131080627,0.19868391752243042,-0.5544365644454956
1700823734573246000,5.740245849609375,1.0851258039474487,-1.0645854473114014,-0.46036332845687866
1700823734582944000,5.749944091796875,1.6349045038223267,-1.7566957473754883,-0.2673299014568329
1700823734593206000,5.7602060546875,2.1376466751098633,-1.552055835723877,-0.04314235970377922
1700823734603914000,5.7709140625,2.3172409534454346,-1.0810787677764893,0.10163270682096481
1700823734613203000,5.780202880859375,2.167578935623169,-0.7750352621078491,0.04604396969079971
1700823734623050000,5.790050048828125,1.7925076484680176,-0.7756461501121521,-0.1799761801958084
1700823734633139000,5.800138916015625,1.3074806928634644,-0.8849910497665405,-0.3326924741268158
1700823734643165000,5.8101650390625,0.6446918845176697,-0.5441282391548157,-0.13904820382595062
1700823734653167000,5.8201669921875,-0.0443640872836113,0.07101308554410934,0.15355625748634338
1700823734663273000,5.83027294921875,-0.38095083832740784,0.4662429094314575,0.41256311535835266
1700823734673192000,5.84019189453125,-0.41027235984802246,0.8150469660758972,0.7198283076286316
1700823734683157000,5.850156982421875,-0.382783442735672,0.746019184589386,1.0307587385177612
1700823734693165000,5.8601650390625,-0.46158504486083984,0.17852537333965302,1.3380240201950073
1700823734703156000,5.870156005859375,-0.758465588092804,-0.5484042763710022,1.647121787071228
1700823734713259000,5.880259033203125,-0.9985355734825134,-0.6583600044250488,1.931784987449646
1700823734723250000,5.89025,-0.825049877166748,-0.29367345571517944,2.0545690059661865
1700823734733157000,5.9001572265625,-0.3980550765991211,0.05451972410082817,1.866422414779663
1700823734743153000,5.91015283203125,0.03443752974271774,0.4216497242450714,1.4608079195022583
1700823734753174000,5.920174072265625,0.2800053656101227,0.8126034736633301,0.9727265238761902
1700823734763216000,5.9302158203125,0.2690097689628601,0.9665415287017822,0.47303876280784607
1700823734773012000,5.940011962890625,0.30138564109802246,0.6837109327316284,0.0038942659739404917
1700823734783001000,5.9500009765625,0.28244882822036743,0.13148874044418335,-0.37117698788642883
1700823734793079000,5.9600791015625,0.12118039280176163,-0.30344730615615845,-0.5800929069519043
1700823734802943000,5.96994287109375,-0.007712173741310835,-0.4060726761817932,-0.6362925171852112
1700823734813050000,5.980050048828125,0.005726861767470837,-0.4628831446170807,-0.5715407729148865
1700823734822942000,5.98994189453125,0.08025242388248444,-0.42989641427993774,-0.42493313550949097
1700823734832946000,5.99994580078125,0.15722143650054932,-0.07620543986558914,-0.09384417533874512
1700823734842925000,6.009925048828125,0.13584116101264954,0.10461067408323288,0.018555032089352608
1700823734853125000,6.020125,0.09980010986328125,0.20357084274291992,0.07903069257736206
1700823734863123000,6.030123046875,0.08575020730495453,0.20662516355514526,0.06620252132415771
1700823734873128000,6.0401279296875,0.09613491594791412,0.10216721147298813,-0.004657847341150045
1700823734883093000,6.050093017578125,0.12056952714920044,-0.016951510682702065,-0.09567677229642868
1700823734893048000,6.060048095703125,0.14378240704536438,-0.10125091671943665,-0.16959145665168762
1700823734903113000,6.070113037109375,0.15966489911079407,-0.12996158003807068,-0.20013472437858582
1700823734913132000,6.080132080078125,0.15477798879146576,-0.12690725922584534,-0.18425223231315613
1700823734922978000,6.08997802734375,0.11934779584407806,-0.09453139454126358,-0.1146135926246643
1700823734933010000,6.100010009765625,0.06314819306135178,-0.022449297830462456,0.004505131393671036
1700823734943175000,6.1101748046875,0.0032834007870405912,0.06612616032361984,0.13339769840240479
1700823734953036000,6.1200361328125,-0.0339793786406517,0.13087788224220276,0.21769709885120392
1700823734962947000,6.129947021484375,-0.0290924571454525,0.15103642642498016,0.24762949347496033
1700823734973617000,6.140616943359375,0.0020616701804101467,0.1235474944114685,0.22624921798706055
1700823734983044000,6.150044189453125,0.02344195358455181,0.05757404863834381,0.1676061451435089
1700823734993198000,6.160197998046875,0.021609358489513397,-0.02122756652534008,0.10346530377864838
1700823735003001000,6.1700009765625,0.011224648915231228,-0.10247264802455902,0.05032002553343773
1700823735013121000,6.18012109375,0.025274548679590225,-0.17150041460990906,0.02955060638487339
1700823735023622000,6.190621826171875,0.1578323096036911,-0.23136521875858307,0.0918588638305664
1700823735033037000,6.200037109375,0.3716351389884949,-0.2606867551803589,0.14439326524734497
1700823735043220000,6.210219970703125,0.5267949104309082,-0.2997821271419525,0.0668133869767189
1700823735053207000,6.22020703125,0.7008914947509766,-0.3358231782913208,0.017333300784230232
1700823735063243000,6.230242919921875,0.8413904905319214,-0.35903605818748474,0.10407616943120956
1700823735072995000,6.2399951171875,0.8169559240341187,-0.27840182185173035,0.24518603086471558
1700823735083030000,6.250030029296875,0.6037639379501343,-0.04566217586398125,0.182877779006958
1700823735093139000,6.260138916015625,0.22747094929218292,-0.02733621932566166,0.0973566472530365
1700823735102954000,6.2699541015625,-0.22518019378185272,-0.05726861581206322,0.07353290170431137
1700823735113071000,6.280071044921875,-0.644233763217926,0.07040221989154816,-0.005879578180611134
1700823735123107000,6.290107177734375,-1.0822241306304932,0.2499966025352478,-0.2703842222690582
1700823735133075000,6.300074951171875,-1.8250362873077393,0.3013092875480652,-0.6766096353530884
1700823735143155000,6.310155029296875,-3.1567225456237793,0.1644754707813263,-1.4621822834014893
1700823735153197000,6.320197021484375,-3.0931925773620605,0.010537425056099892,-1.3852132558822632
1700823735163139000,6.33013916015625,-2.457892656326294,-0.029168816283345222,-1.0529025793075562
1700823735173141000,6.34014111328125,-1.5532011985778809,-0.0780380368232727,-0.5629886984825134
1700823735182951000,6.349950927734375,-0.796339213848114,0.033139441162347794,-0.11827878654003143
1700823735193009000,6.3600087890625,-0.43043091893196106,0.19074267148971558,0.06131559982895851
1700823735203247000,6.3702470703125,-0.34979671239852905,0.1950187236070633,-0.060246583074331284
1700823735213325000,6.380324951171875,-0.3461315333843231,0.24266621470451355,-0.3058144152164459
1700823735223323000,6.390322998046875,-0.5012912750244141,0.40943244099617004,-0.5752059817314148
1700823735233135000,6.400135009765625,-0.786565363407135,0.5035057067871094,-0.7920631766319275
1700823735243249000,6.410248779296875,-1.0278571844100952,0.5633704662322998,-0.8134434223175049
1700823735253204000,6.420203857421875,-1.0492373704910278,0.3367394804954529,-0.5446627140045166
1700823735263235000,6.430235107421875,-0.8433758020401001,0.10705413669347763,0.04787656292319298
1700823735273113000,6.440113037109375,-0.6033058166503906,0.22678372263908386,0.7234935164451599
1700823735283088000,6.450087890625,-0.3785073757171631,0.25305092334747314,1.1284971237182617
1700823735293161000,6.460160888671875,-0.20685423910617828,0.12110403180122375,1.2158509492874146
1700823735303197000,6.470197021484375,-0.1750892549753189,0.02825251780450344,1.0863474607467651
1700823735313132000,6.480132080078125,-0.18975001573562622,-0.2246456891298294,0.9085856676101685
1700823735323121000,6.490120849609375,-0.15798501670360565,-0.3455969989299774,0.8077929019927979
1700823735333099000,6.50009912109375,-0.07673994451761246,-0.2710714638233185,0.7137196660041809
1700823735343230000,6.51022998046875,0.01061378326267004,-0.2557998299598694,0.5823836326599121
1700823735353106000,6.52010595703125,0.09552405029535294,-0.3877467215061188,0.46387580037117004
1700823735363182000,6.53018212890625,0.19692768156528473,-0.4427245855331421,0.5103015303611755
1700823735373281000,6.540281005859375,0.37224599719047546,-0.44028112292289734,0.7137196660041809
1700823735383187000,6.55018701171875,0.5964335799217224,-0.508087158203125,0.9269116520881653
1700823735393273000,6.560273193359375,0.7247152328491211,-0.5716171264648438,1.0002155303955078
1700823735403131000,6.570130859375,0.6184247136116028,-0.6052147150039673,0.8847619295120239
1700823735413219000,6.580218994140625,0.1975385546684265,-0.5484042763710022,0.5500078201293945
1700823735423041000,6.590041015625,-0.2166280895471573,-0.49586987495422363,0.12362385541200638
1700823735433105000,6.60010498046875,-0.2777146100997925,-0.4775438904762268,-0.21174116432666779
1700823735443266000,6.61026611328125,0.16699528694152832,-0.6241515874862671,-0.7328092455863953
1700823735452936000,6.61993603515625,0.46876272559165955,-0.7396050691604614,-1.044350504875183
1700823735463091000,6.630091064453125,0.6178138256072998,-0.850782573223114,-1.4768431186676025
1700823735473074000,6.640073974609375,0.6837872862815857,-1.1745411157608032,-1.6558265686035156
1700823735482983000,6.64998291015625,0.5096907019615173,-0.7347181439399719,-1.432249903678894
1700823735493036000,6.6600361328125,-0.01992947794497013,0.21884247660636902,-1.6484962701797485
1700823735503000000,6.67,-0.2062433809041977,-0.13790282607078552,-2.04250431060791
1700823735513060000,6.68006005859375,-0.3229186534881592,-0.7499898076057434,-2.313117504119873
1700823735523045000,6.690045166015625,-0.4939609169960022,-0.7371616363525391,-2.4707207679748535
1700823735533049000,6.700049072265625,-0.6259077787399292,-0.5557346343994141,-2.3784801959991455
1700823735543611000,6.71061083984375,-0.6228534579277039,-0.37430769205093384,-1.8531360626220703
1700823735553110000,6.720110107421875,-0.7150941491127014,0.22617286443710327,-1.1659126281738281
1700823735562997000,6.7299970703125,-0.9276752471923828,0.793666660785675,-0.5092325210571289
1700823735573005000,6.740005126953125,-0.977155327796936,0.7527387142181396,0.036880988627672195
1700823735583110000,6.75010986328125,-0.8629235029220581,0.5816964507102966,0.27634015679359436
1700823735593125000,6.760125,-0.6784422397613525,0.5444336533546448,0.29710957407951355
1700823735603070000,6.770070068359375,-0.5135086178779602,0.49984049797058105,0.24457517266273499
1700823735613071000,6.780071044921875,-0.4786892831325531,0.4534147381782532,0.16210836172103882
1700823735623016000,6.790015869140625,-0.595975399017334,0.48517972230911255,0.10346530377864838
1700823735633082000,6.80008203125,-0.7419722080230713,0.5291619896888733,0.17188221216201782
1700823735643143000,6.810142822265625,-0.7059311270713806,0.7582364678382874,0.36858081817626953
1700823735653131000,6.820131103515625,-0.5220606923103333,0.8651378750801086,0.5493969321250916
1700823735662985000,6.82998486328125,-0.2520582675933838,0.6910412907600403,0.6404158473014832
1700823735673050000,6.840050048828125,0.04787656292319298,0.4308127164840698,0.6007096171379089
1700823735683102000,6.85010205078125,0.283059686422348,0.09666942805051804,0.4412737786769867
1700823735693181000,6.860180908203125,0.44982588291168213,-0.07192938029766083,0.315435528755188
1700823735703122000,6.870121826171875,0.525573194026947,-0.08414668589830399,0.23968824744224548
1700823735713140000,6.880139892578125,0.4467715620994568,-0.08048149943351746,0.19509509205818176
1700823735723026000,6.89002587890625,0.24701863527297974,-0.04749477282166481,0.16577355563640594
1700823735733013000,6.900012939453125,0.06620252132415771,0.029474247246980667,0.21219931542873383
1700823735743327000,6.910326904296875,-0.03703370690345764,0.10277807712554932,0.24518603086471558
1700823735753113000,6.920113037109375,0.11446087807416916,0.07162395119667053,0.26595544815063477
1700823735763099000,6.930098876953125,0.23113614320755005,0.08017606288194656,0.23968824744224548
1700823735773054000,6.940053955078125,0.2848922908306122,-0.0022907445672899485,0.09063713252544403
1700823735783025000,6.95002490234375,0.2940552532672882,-0.020005837082862854,0.09063713252544403
1700823735793126000,6.9601259765625,0.29772046208381653,-0.0029016099870204926,-0.3064252734184265
1700823735803330000,6.970330078125,0.4015675485134125,0.005650503560900688,-0.4646393656730652
1700823735812977000,6.979976806640625,0.6532440185546875,0.15775595605373383,-0.4945717751979828
1700823735823054000,6.99005419921875,0.8933140635490417,0.1944078654050827,-0.5257259011268616
1700823735833026000,7.000026123046875,1.0570259094238281,0.11682797968387604,-0.5128977298736572
1700823735843047000,7.010046875,1.198746681213379,0.11621711403131485,-0.3076470196247101
1700823735853101000,7.02010107421875,1.3380240201950073,0.33796119689941406,0.09369145333766937
1700823735863037000,7.030036865234375,1.3520739078521729,0.5829181671142578,0.44249552488327026
1700823735873015000,7.04001513671875,1.2207378149032593,0.5969680547714233,0.5695554614067078
1700823735883051000,7.050051025390625,1.0441977977752686,0.3666718602180481,0.6746243238449097
1700823735893101000,7.06010107421875,0.8499426245689392,0.30925053358078003,0.9403507113456726
1700823735903086000,7.070086181640625,0.5390121936798096,0.6391177773475647,1.276937484741211
1700823735913022000,7.08002197265625,0.2488512247800827,0.6721044778823853,1.2793809175491333
1700823735923102000,7.09010205078125,0.38385245203971863,0.4943426847457886,0.9372963309288025
1700823735933115000,7.100114990234375,0.5243514776229858,0.15592335164546967,0.2335795909166336
1700823735943056000,7.110055908203125,0.5420665740966797,-0.3553708493709564,-0.3125339448451996
1700823735953092000,7.120092041015625,0.45288023352622986,-0.46960264444351196,-0.5128977298736572
1700823735963037000,7.130036865234375,0.3398701548576355,-0.3761402666568756,-0.3791182339191437
1700823735973129000,7.14012890625,0.35697436332702637,-0.12446379661560059,-0.18364135921001434
1700823735983358000,7.15035791015625,0.47426050901412964,-0.15561792254447937,-0.08101600408554077
1700823735993378000,7.1603779296875,0.5096907019615173,-0.24846944212913513,-0.07918340712785721
1700823736003177000,7.170177001953125,0.43944117426872253,-0.31322115659713745,-0.16226108372211456
1700823736013111000,7.180111083984375,0.2842814028263092,-0.3706424832344055,-0.2062433809041977
1700823736023079000,7.190078857421875,0.11812606453895569,-0.3718642294406891,-0.15187637507915497
1700823736033107000,7.20010693359375,0.0032834007870405912,-0.3376557528972626,-0.027259862050414085
1700823736043106000,7.21010595703125,-0.03825543448328972,-0.26801711320877075,0.07658722996711731
1700823736053191000,7.22019091796875,-0.012599095702171326,-0.24724771082401276,0.07903069257736206
1700823736063132000,7.2301318359375,-0.015042556449770927,-0.2295326143503189,0.025885414332151413
1700823736073214000,7.2402138671875,-0.06269004940986633,-0.11163562536239624,-0.002825251780450344
1700823736083053000,7.250052978515625,-0.05841398984193802,-0.07192938029766083,0.00939205288887024
1700823736093102000,7.26010205078125,-0.06757696717977524,-0.07742717117071152,-0.006490443367511034
1700823736103092000,7.270092041015625,-0.11644618958234787,-0.12996158003807068,-0.018707748502492905
1700823736113067000,7.28006689453125,-0.43531784415245056,-0.09697485715150833,0.17188221216201782
1700823736123199000,7.290198974609375,-0.353461891412735,0.04596760869026184,0.3960697650909424
1700823736133193000,7.30019287109375,-0.06146831437945366,-0.14156801998615265,0.21769709885120392
1700823736143195000,7.31019482421875,0.13034337759017944,-0.34987306594848633,-0.13782647252082825
1700823736153211000,7.3202109375,0.06314819306135178,-0.40851613879203796,-0.24839307367801666
1700823736163329000,7.3303291015625,-0.033368512988090515,-0.17821992933750153,0.03443752974271774
1700823736173780000,7.340780029296875,-0.01748601719737053,-0.054825156927108765,0.29588785767555237
1700823736183108000,7.350108154296875,-0.024205535650253296,-0.11407908797264099,0.2494620978832245
1700823736193036000,7.3600361328125,-0.04375322163105011,-0.33399057388305664,-0.2007455974817276
1700823736203316000,7.37031591796875,-0.12072224169969559,-0.5141957998275757,-0.7822893261909485
1700823736213234000,7.38023388671875,-0.19219347834587097,-0.5313000679016113,-1.2459360361099243
1700823736223185000,7.390184814453125,-0.1097266674041748,-0.44394633173942566,-1.3143529891967773
1700823736233166000,7.400166015625,0.04726569727063179,-0.18310685455799103,-0.9050732254981995
1700823736243274000,7.41027392578125,0.15661057829856873,0.21578814089298248,-0.4231005311012268
1700823736253376000,7.4203759765625,0.30566170811653137,0.3349068760871887,-0.05047274008393288
1700823736263223000,7.43022314453125,0.3844633102416992,0.3758348524570465,0.27634015679359436
1700823736273221000,7.44022119140625,0.4650975167751312,0.5169447064399719,0.4712061882019043
1700823736283186000,7.45018603515625,0.5078580975532532,0.41493022441864014,0.5646685361862183
1700823736293199000,7.46019921875,0.3649156391620636,0.3605632185935974,0.5145776271820068
1700823736303191000,7.47019091796875,0.11446087807416916,0.2848159074783325,0.33253976702690125
1700823736313141000,7.48014111328125,-0.10300715267658234,0.1748601794242859,0.2286926805973053
1700823736323626000,7.4906259765625,-0.12744176387786865,0.059406645596027374,0.10468703508377075
1700823736333124000,7.5001240234375,0.02710714563727379,-0.13179416954517365,-0.06085744872689247
1700823736343096000,7.510095947265625,0.13156510889530182,-0.2704605758190155,-0.1506546437740326
1700823736353353000,7.52035302734375,0.08330674469470978,-0.2197587788105011,-0.0999528244137764
1700823736363811000,7.53081103515625,0.017333300784230232,-0.08475755155086517,-0.0009926559869199991
1700823736373209000,7.540208984375,0.04970915988087654,-0.04260785132646561,-0.24045182764530182
1700823736383119000,7.550119140625,0.0771980956196785,-0.2142609804868698,-0.3528510332107544
1700823736393157000,7.5601572265625,0.0668133869767189,-0.2612976133823395,-0.2673299014568329
1700823736403057000,7.570056884765625,-0.013209961354732513,-0.15806138515472412,-0.030314188450574875
1700823736413060000,7.58006005859375,-0.06574437022209167,0.00931569468230009,0.17066048085689545
1700823736423095000,7.590094970703125,-0.0016035212902352214,0.10705413669347763,0.23968824744224548
1700823736433137000,7.600136962890625,-0.005879578180611134,0.13209961354732513,0.13461942970752716
1700823736443081000,7.6100810546875,-0.07002042979001999,0.16752979159355164,0.07353290170431137
1700823736453093000,7.620093017578125,-0.17447838187217712,0.2243402600288391,0.23480132222175598
1700823736463375000,7.630375,-0.35957056283950806,0.2762638032436371,0.6092617511749268
1700823736473193000,7.64019287109375,-0.5703190565109253,0.23900102078914642,0.752204179763794
1700823736483058000,7.650057861328125,-0.9313403964042664,-0.027947084978222847,0.5396230816841125
1700823736493206000,7.6602060546875,-1.270370602607727,-0.3065016269683838,0.1981494128704071
1700823736503172000,7.670172119140625,-1.3442853689193726,-0.38469240069389343,-0.019318614155054092
1700823736512956000,7.679955810546875,-1.0180833339691162,-0.10919216275215149,0.1175151988863945
1700823736523225000,7.69022509765625,-0.60513836145401,0.3214678466320038,0.525573194026947
1700823736533203000,7.700202880859375,-0.5177846550941467,0.5450445413589478,0.7179957628250122
1700823736543219000,7.710218994140625,-0.6766096353530884,0.41920626163482666,0.6043748259544373
1700823736553214000,7.7202138671875,-0.9741010069847107,0.3880521357059479,0.44860416650772095
1700823736563168000,7.73016796875,-1.394376277923584,0.43936482071876526,0.27756190299987793
1700823736573013000,7.740012939453125,-1.8574120998382568,0.28420504927635193,0.04909829422831535
1700823736583000000,7.75,-2.1463513374328613,0.17669276893138885,-0.10789407044649124
1700823736592976000,7.759975830078125,-2.131690740585327,0.2701551616191864,-0.12072224169969559
1700823736602958000,7.7699580078125,-1.9563722610473633,0.5224425196647644,0.054596081376075745
1700823736612962000,7.779962158203125,-2.377258539199829,0.7893906235694885,-0.13293954730033875
1700823736622988000,7.789988037109375,-2.7077364921569824,0.5108360648155212,-0.14454598724842072
1700823736632994000,7.799994140625,-2.5947265625,1.3495540618896484,0.524962306022644
1700823736643009000,7.810009033203125,-2.47499680519104,1.8113682270050049,1.1523209810256958
1700823736653087000,7.8200869140625,-2.6631433963775635,1.7289013862609863,1.3349696397781372
1700823736662977000,7.82997705078125,-2.801809787750244,1.5493069887161255,1.1932488679885864
1700823736673071000,7.840071044921875,-2.3815345764160156,1.4430164098739624,0.9690613746643066
1700823736683116000,7.850115966796875,-0.46525025367736816,1.2835805416107178,0.7638106346130371
1700823736693096000,7.860095947265625,0.4198935031890869,0.20295998454093933,0.012446379289031029
1700823736703121000,7.870120849609375,1.0900126695632935,-0.2765692472457886,-0.391946405172348
1700823736712981000,7.87998095703125,1.4601969718933105,-0.6101016402244568,-0.6619488596916199
1700823736723033000,7.890033203125,1.5890896320343018,-0.7127270102500916,-0.7181484699249268
1700823736732974000,7.89997412109375,1.4956271648406982,-0.651029646396637,-0.6179665327072144
1700823736742966000,7.909966064453125,1.1938598155975342,-0.46043968200683594,-0.43592870235443115
1700823736753146000,7.92014599609375,0.8865945339202881,-0.2503020465373993,-0.20990857481956482
1700823736762958000,7.9299580078125,0.7112762331962585,-0.13545936346054077,0.02038762718439102
1700823736773249000,7.9402490234375,0.6611852645874023,-0.1342376321554184,0.17493653297424316
1700823736783008000,7.950008056640625,0.5884923338890076,-0.29184088110923767,0.11934779584407806
1700823736793250000,7.96025,0.36186128854751587,-0.5551238059997559,-0.19952386617660522
1700823736803140000,7.97014013671875,0.02710714563727379,-0.7426594495773315,-0.6662248969078064
1700823736813190000,7.98018994140625,-0.2160172164440155,-0.7689266204833984,-1.0877219438552856
1700823736823267000,7.99026708984375,-0.19463694095611572,-0.6553056836128235,-1.2990813255310059
1700823736833233000,8.00023291015625,-0.021762074902653694,-0.49464812874794006,-1.3021355867385864
1700823736843275000,8.01027490234375,0.1370628923177719,-0.2710714638233185,-1.137812852859497
1700823736852988000,8.01998779296875,0.18409951031208038,-0.0780380368232727,-0.8855255246162415
1700823736862962000,8.0299619140625,0.08269587904214859,-0.003512475173920393,-0.6698901057243347
1700823736873179000,8.040178955078124,-0.16714800894260406,-0.15500704944133759,-0.6014732122421265
1700823736882934000,8.04993408203125,-0.5269476175308228,-0.31444287300109863,-0.6472880840301514
1700823736892912000,8.059912109375,-0.918512225151062,-0.32910364866256714,-0.7835110425949097
1700823736902937000,8.06993701171875,-1.1598039865493774,-0.24113905429840088,-0.9026297330856323
1700823736912993000,8.079992919921875,-1.1323150396347046,-0.08720101416110992,-0.8336020112037659
1700823736923045000,8.090045166015624,-0.9007971882820129,0.28725937008857727,-0.5941427946090698
1700823736933188000,8.10018798828125,-0.6778313517570496,0.43020185828208923,-0.38095083832740784
1700823736943120000,8.110119873046875,-0.5391649603843689,0.19868391752243042,-0.26977336406707764
1700823736953245000,8.120244873046875,-0.4383721649646759,-0.02733621932566166,-0.2160172164440155
1700823736962936000,8.12993603515625,-0.391946405172348,-0.13973543047904968,-0.2520582675933838
1700823736973125000,8.140125,-0.37484219670295715,-0.31749722361564636,-0.3766747713088989
1700823736983414000,8.1504140625,-0.32902729511260986,-0.36453384160995483,-0.4750240743160248
1700823736993097000,8.160096923828124,-0.2722168266773224,-0.31871894001960754,-0.5611560940742493
1700823737003092000,8.170092041015625,-0.14698944985866547,-0.3675881624221802,-0.6906595230102539
1700823737013092000,8.180092041015625,-0.2520582675933838,-0.365755558013916,-0.6277403831481934
1700823737022960000,8.189960205078124,-0.5171737670898438,-0.26190847158432007,-0.4982369542121887
1700823737033082000,8.20008203125,-0.815276026725769,-0.1586722433567047,-0.3974441885948181
1700823737043206000,8.210205810546874,-0.986929178237915,-0.10491610318422318,-0.3223077654838562
1700823737053073000,8.220072998046875,-0.889801561832428,0.019089538604021072,-0.1653154045343399
1700823737062979000,8.22997900390625,-0.5501605272293091,0.44425174593925476,0.06864598393440247
1700823737073074000,8.240073974609375,-0.15920674800872803,0.8755226135253906,0.2439643144607544
1700823737083099000,8.250098876953125,0.13156510889530182,0.9231700897216797,0.25251641869544983
1700823737093108000,8.26010791015625,0.24640776216983795,0.5792529582977295,0.10835222154855728
1700823737103013000,8.27001318359375,0.1737148016691208,0.1437060534954071,-0.07063129544258118
1700823737112980000,8.27997998046875,-0.06269004940986633,-0.14645494520664215,-0.20868684351444244
1700823737122956000,8.2899560546875,-0.3943898677825928,-0.31810808181762695,-0.2972623109817505
1700823737132902000,8.29990185546875,-0.7095963358879089,-0.5410739183425903,-0.4237114191055298
1700823737143148000,8.31014794921875,-0.947833776473999,-0.7463245987892151,-0.5452736020088196
1700823737152914000,8.319913818359375,-1.0657308101654053,-0.7738135457038879,-0.5984188914299011
1700823737162993000,8.329992919921875,-1.03579843044281,-0.6803511381149292,-0.5898667573928833
1700823737172903000,8.33990283203125,-0.9741010069847107,-0.6913467645645142,-0.5507713556289673
1700823737182981000,8.349981201171875,-0.9637162685394287,-0.6711881756782532,-0.5367214679718018
1700823737192946000,8.35994580078125,-0.9985355734825134,-0.6907358765602112,-0.3333033621311188
1700823737202884000,8.369884033203125,-1.0748937129974365,-0.3358231782913208,-0.015042556449770927
1700823737213082000,8.38008203125,-1.1060478687286377,-0.024892758578062057,0.3001639246940613
1700823737222948000,8.389947998046875,-1.16530179977417,0.07528914511203766,0.3753003478050232
1700823737232975000,8.39997509765625,-1.2098950147628784,-0.2356412708759308,0.16455182433128357
1700823737242897000,8.40989697265625,-1.2453252077102661,-0.5526803135871887,-0.2960405647754669
1700823737252877000,8.419876953125,-1.327181100845337,-0.7212791442871094,-0.6674466133117676
1700823737262927000,8.429927001953125,-1.3894894123077393,-0.7420485615730286,-0.8800277709960938
1700823737272893000,8.439892822265625,-1.3265702724456787,-0.6834055185317993,-0.8653669953346252
1700823737283416000,8.450416015625,-1.2379947900772095,-0.5508477091789246,-0.6894378066062927
1700823737293051000,8.46005078125,-1.2123384475708008,-0.3724750876426697,-0.46097418665885925
1700823737302948000,8.469947998046875,-1.1549171209335327,-0.2906191349029541,-0.22456933557987213
1700823737312942000,8.479942138671875,-0.9734901189804077,-0.3364340364933014,0.10285443812608719
1700823737322945000,8.489945068359376,-0.929507851600647,-0.3804163336753845,0.11934779584407806
1700823737332895000,8.49989501953125,-0.9557750225067139,-0.38469240069389343,0.03871358558535576
1700823737342966000,8.509966064453126,-0.9728792905807495,-0.19593502581119537,-0.006490443367511034
1700823737353037000,8.520037109375,-0.9741010069847107,0.038026362657547,-0.11339186131954193
1700823737363250000,8.53025,-0.9075166583061218,0.3550654351711273,-0.17142406105995178
1700823737372992000,8.539991943359375,-0.7303657531738281,0.42898011207580566,-0.014431691728532314
1700823737382929000,8.549928955078125,-0.5660430192947388,0.230448916554451,0.10896308720111847
1700823737392965000,8.559965087890625,-0.4628067910671234,0.17791450023651123,0.060093868523836136
1700823737403283000,8.570282958984375,-0.39500072598457336,0.2664899528026581,-0.033368512988090515
1700823737413028000,8.580028076171875,-0.2618321180343628,0.1742493063211441,-0.0541379339993
1700823737422917000,8.589917236328125,-0.12622003257274628,0.3006984293460846,-0.27404943108558655
1700823737432953000,8.599953125,-0.06757696717977524,0.5145012736320496,-0.4328743815422058
1700823737442922000,8.609921875,-0.09384417533874512,0.5969680547714233,-0.6100252866744995
1700823737452920000,8.619920166015625,-0.11094839870929718,0.6745479702949524,-0.7883979678153992
1700823737462937000,8.62993701171875,0.01366810966283083,0.8205447196960449,-0.9563859105110168
1700823737472904000,8.639904052734375,0.31665727496147156,1.0648908615112305,-1.1072696447372437
1700823737482978000,8.64997802734375,0.6911176443099976,1.3141238689422607,-1.1897363662719727
1700823737492935000,8.659934814453125,0.9739482998847961,1.5364787578582764,-1.2954161167144775
1700823737502932000,8.669931884765624,1.0930670499801636,1.6421585083007812,-1.3577243089675903
1700823737512971000,8.679970947265625,1.1572078466415405,1.7478381395339966,-1.4114805459976196
1700823737523090000,8.69008984375,1.331915259361267,1.5786285400390625,-1.4414129257202148
1700823737532927000,8.699927001953125,1.5872570276260376,0.9213374853134155,-1.3210724592208862
1700823737542931000,8.709930908203125,1.7088191509246826,0.8394815921783447,-1.1982885599136353
1700823737553008000,8.720008056640625,1.702710509300232,0.8914051055908203,-1.1188760995864868
1700823737562913000,8.7299130859375,1.6257414817810059,1.2634220123291016,-1.1744648218154907
1700823737573119000,8.740118896484375,1.5469398498535156,1.6281086206436157,-1.3412309885025024
1700823737582965000,8.749965087890626,1.416825532913208,1.0355693101882935,-1.6167312860488892
1700823737592945000,8.75994482421875,1.3129785060882568,0.5761986374855042,-1.620396375656128
1700823737602996000,8.769995849609375,1.3007612228393555,0.35262197256088257,-1.309466004371643
1700823737612934000,8.779933837890624,1.391780138015747,-0.1085812970995903,-0.7688502669334412
1700823737623096000,8.790095947265625,1.1932488679885864,-0.5313000679016113,-0.330859899520874
1700823737633017000,8.80001708984375,1.1846967935562134,-0.43050727248191833,-0.22884538769721985
1700823737642928000,8.80992822265625,1.2445615530014038,-0.16844609379768372,-0.18180876970291138
1700823737652940000,8.81993994140625,1.3001502752304077,0.11133018881082535,-0.2062433809041977
1700823737663034000,8.8300341796875,1.2903764247894287,0.2646573781967163,-0.4524220824241638
1700823737672965000,8.839965087890626,1.2567788362503052,0.08078692853450775,-0.6753878593444824
1700823737682966000,8.849966064453126,1.257389783859253,-0.37980547547340393,-0.6191883087158203
1700823737692950000,8.859949951171876,1.2079097032546997,-0.9234755635261536,-0.6039166450500488
1700823737703008000,8.870008056640625,1.0771845579147339,-1.5251778364181519,-0.5550474524497986
1700823737712976000,8.879975830078125,1.0051023960113525,-2.1476495265960693,-0.2758820056915283
1700823737722990000,8.889989990234374,1.0038806200027466,-2.389552116394043,0.01061378326267004
1700823737732892000,8.899891845703126,0.9770026206970215,-1.9924896955490112,0.09857837855815887
1700823737742923000,8.909923095703125,0.953178882598877,-1.1702650785446167,0.10957395285367966
1700823737753211000,8.9202109375,1.000826358795166,-0.5288565754890442,0.3465896546840668
1700823737762895000,8.92989501953125,1.0820714235305786,-0.24236078560352325,0.8175667524337769
1700823737773180000,8.940179931640625,1.1620947122573853,-0.1085812970995903,1.237842082977295
1700823737782880000,8.9498798828125,1.2775483131408691,-0.007788531947880983,1.5127314329147339
1700823737792931000,8.95993115234375,1.3728432655334473,0.08384125679731369,1.5481616258621216
1700823737803047000,8.970046875,1.3215305805206299,0.2817615866661072,1.2641092538833618
1700823737812941000,8.979941162109375,1.0979539155960083,0.40515637397766113,0.7460955381393433
1700823737822949000,8.98994921875,0.37835466861724854,0.9066767692565918,-0.35957056283950806
1700823737833019000,9.000018798828124,-0.2557234764099121,1.250593900680542,-1.358335256576538
1700823737842922000,9.009921875,-0.4847979247570038,0.9317222237586975,-1.507386326789856
1700823737852901000,9.019901123046875,-0.4579198658466339,0.5438227653503418,-1.1439214944839478
1700823737862917000,9.029917236328124,-0.4383721649646759,0.1437060534954071,-0.4878522455692291
1700823737872958000,9.0399580078125,-0.5367214679718018,-0.0884227454662323,0.04726569727063179
1700823737882939000,9.04993896484375,-0.6888269186019897,-0.043218716979026794,0.0869719386100769
1700823737893039000,9.0600390625,-0.5324454307556152,-0.1189660057425499,0.1682170182466507
1700823737902987000,9.069987060546875,-0.19891299307346344,-0.2356412708759308,0.27084237337112427
1700823737912940000,9.07993994140625,0.13034337759017944,-0.4115704596042633,0.09124799817800522
1700823737923013000,9.09001318359375,0.2592359483242035,-0.3462078869342804,-0.17386752367019653
1700823737932968000,9.099968017578124,-0.3717878460884094,-0.0884227454662323,-0.17325665056705475
1700823737942933000,9.10993310546875,-0.6527858972549438,-0.08170322328805923,0.04604396969079971
1700823737952935000,9.119934814453124,-0.8390997648239136,0.016035212203860283,0.33864840865135193
1700823737962956000,9.1299560546875,-0.967381477355957,0.19624045491218567,0.6562983393669128
1700823737972990000,9.139989990234374,-1.006476879119873,0.4283692538738251,0.9482919573783875
1700823737982920000,9.149919921875,-0.956996738910675,0.5059491395950317,1.1144472360610962
1700823737992927000,9.159927001953125,-0.7413613200187683,0.3116939961910248,1.0979539155960083
1700823738003091000,9.170091064453125,-0.23739750683307648,0.14492778480052948,0.9562332034111023
1700823738012905000,9.179905029296876,0.09308059513568878,0.18829920887947083,0.8126798272132874
1700823738023099000,9.190098876953124,-0.0016035212902352214,0.11499538272619247,0.5402339696884155
1700823738032970000,9.199969970703124,-0.14698944985866547,-0.06276640295982361,0.19998200237751007
1700823738042956000,9.2099560546875,-0.16470454633235931,-0.23869559168815613,-0.10911580175161362
1700823738052976000,9.21997607421875,-0.09262244403362274,-0.3254384696483612,-0.2508365511894226
1700823738063002000,9.230002197265625,-0.051083605736494064,-0.21792617440223694,-0.2874884605407715
1700823738072964000,9.239964111328124,-0.059635721147060394,0.06062837690114975,-0.28871017694473267
1700823738083056000,9.25005615234375,-0.035811975598335266,0.24327708780765533,-0.18425223231315613
1700823738092925000,9.259925048828125,0.04787656292319298,0.2096794992685318,-0.07185302674770355
1700823738102922000,9.269921875,0.08086328953504562,0.11438451707363129,-0.04008803144097328
1700823738113120000,9.2801201171875,0.060704734176397324,0.044135015457868576,-0.0742964819073677
1700823738122918000,9.28991796875,0.07475463300943375,-0.054825156927108765,-0.11827878654003143
1700823738133019000,9.300018798828125,0.07536549866199493,-0.13973543047904968,-0.14149166643619537
1700823738142900000,9.30989990234375,0.021609358489513397,-0.17333301901817322,-0.13355042040348053
1700823738152966000,9.3199658203125,-0.038866300135850906,-0.15806138515472412,-0.08407033234834671
1700823738162935000,9.32993505859375,-0.06635523587465286,-0.07925976812839508,-0.02054034359753132
1700823738172971000,9.339970947265625,-0.10606148093938828,-0.02733621932566166,0.013057244941592216
1700823738183000000,9.35,-0.2105194330215454,-0.00045814894838258624,-0.013209961354732513
1700823738192994000,9.359994140625,-0.311312198638916,0.021532999351620674,-0.09323330968618393
1700823738202957000,9.36995703125,-0.2703842222690582,0.04046982154250145,-0.14760030806064606
1700823738213007000,9.380007080078125,-0.1811978965997696,0.032528575509786606,-0.19219347834587097
1700823738223016000,9.390015869140624,-0.10117455571889877,-0.004734205547720194,-0.22884538769721985
1700823738232980000,9.39997998046875,-0.0443640872836113,-0.03955352306365967,-0.26366472244262695
1700823738242908000,9.409907958984375,-0.11094839870929718,-0.08109235763549805,-0.32536208629608154
1700823738252982000,9.41998193359375,-0.1750892549753189,-0.33337971568107605,-0.4884631335735321
1700823738263913000,9.430912841796875,-0.2709950804710388,-0.32849279046058655,-0.3937790095806122
1700823738273028000,9.440028076171876,-0.3717878460884094,-0.34376442432403564,-0.20990857481956482
1700823738283013000,9.45001318359375,-0.44020476937294006,-0.27840182185173035,-0.005879578180611134
1700823738292940000,9.45993994140625,-0.531223714351654,-0.22647829353809357,0.1724930703639984
1700823738303382000,9.470382080078124,-0.6967681646347046,-0.2893974184989929,0.33253976702690125
1700823738315042000,9.4820419921875,-0.8714756369590759,-0.3016147017478943,0.49808424711227417
1700823738328349000,9.495348876953125,-1.1445324420928955,-0.19654589891433716,0.43944117426872253
1700823738342955000,9.509955078125,-1.096884846687317,-0.2344195395708084,0.1987602859735489
1700823738352979000,9.51997900390625,-0.8384889364242554,-0.2454151064157486,-0.07307475805282593
1700823738363054000,9.53005419921875,-0.45486554503440857,-0.14767667651176453,-0.4188244938850403
1700823738372977000,9.539976806640626,-0.025427265092730522,0.09422596544027328,-0.8030587434768677
1700823738382944000,9.549944091796876,0.26595544815063477,0.17791450023651123,-1.2007319927215576
1700823738392969000,9.559968994140625,0.37224599719047546,-0.026114489883184433,-1.4456889629364014
1700823738402972000,9.569971923828126,0.3643047511577606,-0.4567744731903076,-1.4646258354187012
1700823738413001000,9.5800009765625,0.3942371606826782,-0.88987797498703,-1.2068406343460083
1700823738423001000,9.5900009765625,0.45837801694869995,-1.232573390007019,-0.8012261390686035
1700823738433020000,9.60002001953125,0.5420665740966797,-1.1268936395645142,-0.576427698135376
1700823738442401000,9.609401123046876,0.8847619295120239,-0.6424775123596191,-0.23739750683307648
1700823738454714000,9.621714111328124,0.8847619295120239,-0.6424775123596191,-0.23739750683307648
1700823738462934000,9.62993408203125,1.1175016164779663,-0.48487427830696106,0.015500705689191818
1700823738472968000,9.639968017578125,1.2427289485931396,-0.4170682430267334,0.11385001242160797
1700823738483012000,9.65001220703125,1.1914162635803223,-0.4836525619029999,-0.08773551881313324
1700823738492925000,9.659925048828125,1.159651279449463,-0.6064364910125732,-0.47013717889785767
1700823738502972000,9.669971923828125,1.3569607734680176,-0.7506006956100464,-0.8733082413673401
1700823738512973000,9.67997314453125,1.5695419311523438,-0.8147414922714233,-1.2117276191711426
1700823738522968000,9.689968017578124,1.609248161315918,-0.6913467645645142,-1.5061646699905396
1700823738532909000,9.699908935546874,1.7747925519943237,-0.650418758392334,-2.1744511127471924
1700823738542937000,9.70993701171875,1.8878027200698853,-0.23747386038303375,-3.072423219680786
1700823738553086000,9.7200859375,1.9562195539474487,0.5083925724029541,-4.752302646636963
1700823738562961000,9.7299609375,2.2610414028167725,3.22979736328125,-4.1011199951171875
1700823738573069000,9.740069091796874,1.9714912176132202,0.44547349214553833,-2.7779860496520996
1700823738583042000,9.7500419921875,1.0722975730895996,-1.4414892196655273,-1.071839451789856
1700823738592929000,9.759928955078125,0.5506186485290527,-0.5227479338645935,-0.5251150131225586
1700823738603026000,9.77002587890625,0.25618159770965576,-0.13729196786880493,-0.25328001379966736
1700823738612960000,9.7799599609375,-0.3229186534881592,-0.8910996913909912,0.4852560758590698
1700823738623028000,9.790028076171875,-0.8354345560073853,-0.8715519905090332,0.8407796621322632
1700823738633058000,9.80005810546875,-0.767017662525177,-0.5251913666725159,0.7961865067481995
1700823738642940000,9.80993994140625,-0.2960405647754669,-0.12629638612270355,0.38324159383773804
1700823738652951000,9.819950927734375,-0.07185302674770355,0.00809396430850029,0.008170322515070438
1700823738662913000,9.8299130859375,-0.07735081017017365,0.08017606288194656,-0.004046982154250145
1700823738672951000,9.839950927734375,-0.010155634954571724,0.14187344908714294,0.22747094929218292
1700823738683375000,9.850375,-0.0034361169673502445,0.19074267148971558,0.554894745349884
1700823738692950000,9.859949951171876,-0.10422888398170471,0.289702832698822,0.8432230949401855
1700823738702988000,9.869988037109374,-0.26488643884658813,0.4271475374698639,1.0057132244110107
1700823738712942000,9.879942138671876,-0.4493677318096161,0.6776022911071777,1.0674107074737549
1700823738722943000,9.88994287109375,-0.6375142335891724,0.7637342810630798,0.9800569415092468
1700823738732947000,9.899947021484374,-0.8006152510643005,0.5285511612892151,0.761978030204773
1700823738742949000,9.90994921875,-0.9209557175636292,0.26893341541290283,0.5341253280639648
1700823738753013000,9.920012939453125,-0.9655488729476929,0.2616030275821686,0.3691916763782501
1700823738762999000,9.9299990234375,-0.8757516741752625,0.33246341347694397,0.20059287548065186
1700823738773063000,9.94006298828125,-0.5672647356987,0.5914703011512756,0.04115704447031021
1700823738783030000,9.950030029296874,-0.2111303061246872,0.955545961856842,-0.07918340712785721
1700823738793040000,9.960039794921874,-0.05841398984193802,1.0899362564086914,-0.0443640872836113
1700823738802931000,9.969930908203125,-0.06146831437945366,0.9494373202323914,0.15050192177295685
1700823738812986000,9.979986083984375,-0.1359938681125641,0.8633053302764893,0.36186128854751587
1700823738822892000,9.98989208984375,-0.363235741853714,0.8071057200431824,0.48953214287757874
1700823738833014000,10.000013916015625,-0.6485098004341125,0.6476698517799377,0.5878814458847046
1700823738843029000,10.010029052734374,-0.9026297330856323,0.5401576161384583,0.7558693885803223
1700823738852979000,10.01997900390625,-1.0193049907684326,0.6238461136817932,0.8328384160995483
1700823738863008000,10.030008056640625,-0.7609090209007263,0.6201809644699097,0.7497607469558716
1700823738872982000,10.03998193359375,-0.5495496392250061,0.6965391039848328,0.6208681464195251
1700823738882971000,10.049970947265624,-0.4738023579120636,0.7961101531982422,0.5524512529373169
1700823738893018000,10.06001806640625,-0.5544365644454956,0.8419250249862671,0.5426774024963379
1700823738902958000,10.0699580078125,-0.5886450409889221,0.7399105429649353,0.5090798139572144
1700823738913140000,10.080139892578124,-0.5971971154212952,0.6635523438453674,0.48342347145080566
1700823738922934000,10.08993408203125,-0.6509532928466797,0.8095491528511047,0.5243514776229858
1700823738933028000,10.100028076171874,-0.7047094106674194,0.8633053302764893,0.4260021448135376
1700823738942942000,10.10994189453125,-0.8800277709960938,0.6892086863517761,0.3087160289287567
1700823738952919000,10.1199189453125,-1.0993283987045288,0.9628763198852539,0.4657084047794342
1700823738962922000,10.129921875,-1.2184470891952515,1.2371548414230347,0.76136714220047
1700823738972959000,10.139958984375,-1.2489902973175049,1.5566374063491821,1.1578186750411987
1700823738982960000,10.149960205078125,-1.148808479309082,1.9879082441329956,1.733864665031433
1700823738993001000,10.1600009765625,-0.9209557175636292,1.8009834289550781,1.977599859237671
1700823739002975000,10.16997509765625,-0.6222426295280457,0.9182831645011902,1.6526196002960205
1700823739012990000,10.179989990234375,-0.16775886714458466,0.32879820466041565,1.0741301774978638
1700823739022945000,10.189945068359375,0.3337614834308624,0.2854267954826355,0.7039458155632019
1700823739032931000,10.19993115234375,0.46815183758735657,0.3397938013076782,0.5927683711051941
1700823739043031000,10.210031005859374,0.1175151988863945,0.3856086730957031,0.7094436287879944
1700823739053013000,10.220012939453126,-0.19769126176834106,0.31841349601745605,0.6831763982772827
1700823739062940000,10.22993994140625,-0.2416735589504242,0.37888917326927185,0.49319732189178467
1700823739072920000,10.239920166015626,-0.2215150147676468,0.5242751240730286,0.5286275148391724
1700823739082889000,10.249888916015625,-0.3229186534881592,0.6409503817558289,0.8548295497894287
1700823739092989000,10.259989013671875,-0.4469242990016937,0.7496843934059143,1.2445615530014038
1700823739102936000,10.26993603515625,-0.401720255613327,0.7765624523162842,1.3484086990356445
1700823739112933000,10.27993310546875,-0.08895725011825562,0.6464481353759766,0.9959394335746765
1700823739122971000,10.289970947265624,0.3753003478050232,0.49128836393356323,0.41317397356033325
1700823739132903000,10.29990283203125,0.6336963176727295,0.3862195611000061,0.11323914676904678
1700823739142984000,10.30998388671875,0.43760859966278076,-0.003512475173920393,-0.09567677229642868
1700823739152941000,10.319941162109375,0.12118039280176163,-0.26801711320877075,-0.2862667143344879
1700823739162931000,10.329930908203124,-0.12377656996250153,-0.19226983189582825,-0.32536208629608154
1700823739172937000,10.33993701171875,-0.15248723328113556,-0.043218716979026794,-0.21907155215740204
1700823739182980000,10.34997998046875,-0.03703370690345764,0.25671613216400146,0.14622586965560913
1700823739192930000,10.359929931640625,-0.10545061528682709,0.3452915847301483,0.20120373368263245
1700823739202884000,10.369884033203125,-0.20013472437858582,0.3318525552749634,0.1938733607530594
1700823739212901000,10.379901123046874,-0.24839307367801666,0.25244006514549255,0.10529789328575134
1700823739222911000,10.389910888671874,-0.18913915753364563,0.13087788224220276,-0.007712173741310835
1700823739232911000,10.3999111328125,-0.10545061528682709,0.012980886735022068,-0.09506590664386749
1700823739242955000,10.409955078125,-0.1298852264881134,-0.08720101416110992,-0.140269935131073
1700823739252944000,10.41994384765625,-0.21479548513889313,-0.16783522069454193,-0.18180876970291138
1700823739262972000,10.429971923828125,-0.31009048223495483,-0.15073099732398987,-0.19952386617660522
1700823739272949000,10.439948974609376,-0.4188244938850403,-0.08231408894062042,-0.18791742622852325
1700823739282940000,10.44993994140625,-0.4994587004184723,-0.009621127508580685,-0.13232868909835815
1700823739292920000,10.459920166015625,-0.5196172595024109,0.0429132841527462,-0.07673994451761246
1700823739302895000,10.46989501953125,-0.4340961277484894,0.13209961354732513,-0.039477165788412094
1700823739312938000,10.47993798828125,-0.31375566124916077,0.1498146951198578,-0.030925052240490913
1700823739322932000,10.489931884765625,-0.24900394678115845,0.09728029370307922,-0.06513350456953049
1700823739332934000,10.499933837890625,-0.25450173020362854,0.038026362657547,-0.10117455571889877
1700823739343051000,10.510051025390625,-0.35101842880249023,0.021532999351620674,-0.10056369006633759
1700823739353063000,10.52006298828125,-0.5245041847229004,0.047800205647945404,-0.09384417533874512
1700823739362910000,10.529909912109375,-0.7205919027328491,0.078343465924263,-0.17692184448242188
1700823739372937000,10.53993701171875,-0.7566329836845398,-0.014508049935102463,-0.3064252734184265
1700823739383224000,10.55022412109375,-0.5165629386901855,-0.10247264802455902,-0.3638466000556946
1700823739392995000,10.5599951171875,-0.12255483865737915,-0.09086620807647705,-0.3583488166332245
1700823739403113000,10.570113037109374,0.04054617881774902,0.008704829961061478,-0.23189972341060638
1700823739412893000,10.579892822265625,-0.12072224169969559,0.09056077152490616,-0.09384417533874512
1700823739422919000,10.5899189453125,-0.1799761801958084,0.07528914511203766,-0.04069889709353447
1700823739433085000,10.6000849609375,-0.11644618958234787,0.08933904021978378,-0.08101600408554077
1700823739442933000,10.60993310546875,-0.014431691728532314,0.008704829961061478,-0.17386752367019653
1700823739452911000,10.6199111328125,-0.006490443367511034,-0.051770828664302826,-0.17264579236507416
1700823739462901000,10.62990087890625,-0.12438743561506271,0.0679587572813034,-0.056581392884254456
1700823739472912000,10.639911865234374,-0.1958586722612381,0.19257527589797974,0.028939740732312202
1700823739482913000,10.6499130859375,-0.17142406105995178,0.2444988191127777,0.1071304902434349
1700823739492926000,10.659926025390625,0.011224648915231228,0.12538009881973267,0.2036471962928772
1700823739502959000,10.669958984375,0.02344195358455181,0.18219055235385895,0.16088663041591644
1700823739513019000,10.680018798828126,0.015500705689191818,0.23900102078914642,0.06742425262928009
1700823739522903000,10.689903076171875,-0.029703322798013687,0.1498146951198578,-0.056581392884254456
1700823739532899000,10.699899169921874,-0.0492510087788105,0.00931569468230009,-0.15309810638427734
1700823739543091000,10.710091064453126,-0.04008803144097328,-0.06765332818031311,-0.22273674607276917
1700823739553069000,10.720069091796875,-0.04619668424129486,-0.14034628868103027,-0.26977336406707764
1700823739562955000,10.729955078125,-0.0492510087788105,-0.1794416606426239,-0.2807689309120178
1700823739573088000,10.740087890625,-0.02603813074529171,-0.20815233886241913,-0.2777146100997925
1700823739582933000,10.74993310546875,-0.027870727702975273,-0.2148718535900116,-0.3216969072818756
1700823739592932000,10.75993212890625,-0.044974952936172485,-0.2503020465373993,-0.35957056283950806
1700823739602935000,10.76993505859375,-0.03764457255601883,-0.24174992740154266,-0.3778965175151825
1700823739613038000,10.7800380859375,-0.03153591975569725,-0.21365012228488922,-0.3638466000556946
1700823739622937000,10.78993701171875,-0.07002042979001999,-0.21120665967464447,-0.31436651945114136
1700823739632990000,10.799989990234375,-0.11950051039457321,-0.14828753471374512,-0.25999951362609863
1700823739642960000,10.8099599609375,-0.1347721517086029,-0.07254024595022202,-0.21846067905426025
1700823739652973000,10.81997314453125,-0.11217013001441956,-0.07192938029766083,-0.15370896458625793
1700823739662910000,10.829909912109375,-0.036422841250896454,0.21334469318389893,-0.26855164766311646
1700823739673037000,10.840037109375,0.1480584591627121,0.8425359129905701,-0.5996406078338623
1700823739683116000,10.850115966796874,0.14622586965560913,0.3917173445224762,-0.5678756237030029
1700823739693092000,10.860092041015625,0.06803511828184128,0.12965615093708038,-0.44081562757492065
1700823739703049000,10.870049072265624,0.09674578160047531,0.6165157556533813,-0.5519931316375732
1700823739713087000,10.8800869140625,0.16394096612930298,1.249372124671936,-0.7493025660514832
1700823739722950000,10.889949951171875,0.000839939690195024,1.5358679294586182,-0.9563859105110168
1700823739733012000,10.900011962890625,-0.4127158224582672,1.2359330654144287,-0.9545533061027527
1700823739743114000,10.910114013671874,-0.6118578910827637,0.8071057200431824,-0.7945066094398499
1700823739753034000,10.920033935546876,-0.49701523780822754,0.41920626163482666,-0.5452736020088196
1700823739763137000,10.930136962890625,-0.31925344467163086,0.10155634582042694,-0.40049853920936584
1700823739773068000,10.940068115234375,-0.19769126176834106,0.0032070425804704428,-0.4340961277484894
1700823739783460000,10.950460205078125,-0.14271339774131775,0.04657847434282303,-0.5605452060699463
1700823739793122000,10.9601220703125,-0.18913915753364563,0.1388191282749176,-0.6619488596916199
1700823739803246000,10.97024609375,-0.2960405647754669,0.2848159074783325,-0.7059311270713806
1700823739813200000,10.980199951171874,-0.41638103127479553,0.25305092334747314,-0.4890739917755127
1700823739823006000,10.990005859375,-0.47196975350379944,0.05207626149058342,-0.10361801832914352
1700823739832994000,10.999994140625,-0.4793001413345337,-0.16722436249256134,0.2384665161371231
1700823739842992000,11.0099921875,-0.401720255613327,-0.21792617440223694,0.3746894598007202
1700823739852984000,11.019984130859376,-0.16226108372211456,-0.02733621932566166,0.25679248571395874
1700823739863004000,11.03000390625,0.0264962799847126,0.29275718331336975,-0.07063129544258118
1700823739872941000,11.039941162109375,0.025274548679590225,0.5572618246078491,-0.37117698788642883
1700823739882937000,11.04993701171875,-0.04986187443137169,0.4986187517642975,-0.391946405172348
1700823739893033000,11.060032958984374,-0.12622003257274628,0.10155634582042694,-0.09078984707593918
1700823739903041000,11.070041015625,-0.10422888398170471,-0.37369680404663086,0.35758525133132935
1700823739912892000,11.079891845703125,-0.03825543448328972,-0.812908947467804,0.7894669771194458
1700823739923070000,11.090070068359376,-0.038866300135850906,-1.1562151908874512,1.0765736103057861
1700823739933034000,11.100033935546875,-0.07063129544258118,-1.2863295078277588,1.1999684572219849
1700823739943021000,11.11002099609375,-0.0895681157708168,-1.3516920804977417,1.3001502752304077
1700823739952994000,11.119994140625,-0.07796167582273483,-1.5025757551193237,1.380173683166504
1700823739963110000,11.13010986328125,-0.04314235970377922,-1.7004960775375366,1.3856714963912964
1700823739973072000,11.14007177734375,0.09674578160047531,-1.781130313873291,1.2482267618179321
1700823739983014000,11.150013916015626,0.07292203605175018,-1.5978707075119019,0.9153051972389221
1700823739993157000,11.1601572265625,-0.21418462693691254,-1.4463762044906616,0.609872579574585
1700823740003173000,11.170173095703126,-0.5727625489234924,-1.4726433753967285,0.6349180936813354
1700823740013143000,11.18014306640625,-0.8836929202079773,-1.404226541519165,0.9470701813697815
1700823740022958000,11.1899580078125,-1.0681742429733276,-0.9271407127380371,1.284267783164978
1700823740032976000,11.199975830078126,-1.0693960189819336,-0.15317445993423462,1.5188400745391846
1700823740043025000,11.21002490234375,-0.9209557175636292,0.5126686692237854,1.6300175189971924
1700823740053163000,11.2201630859375,-0.7829001545906067,0.8327620625495911,1.5848134756088257
1700823740062962000,11.2299619140625,-0.7541894912719727,0.746630072593689,1.4217125177383423
1700823740072935000,11.239934814453125,-0.785954475402832,0.3966042697429657,1.2775483131408691
1700823740082954000,11.2499541015625,-0.7810675501823425,0.1699732542037964,1.1834750175476074
1700823740093010000,11.260010009765624,-0.738917887210846,0.16325373947620392,1.0215957164764404
1700823740103075000,11.270074951171875,-0.7682393789291382,0.05207626149058342,0.771751880645752
1700823740112941000,11.279941162109376,-0.7712937593460083,-0.4066835343837738,0.47914743423461914
1700823740123035000,11.290034912109375,-0.7334200739860535,-0.17699819803237915,0.5145776271820068
1700823740133052000,11.300052001953125,-0.6576728224754333,0.08445212244987488,0.5878814458847046
1700823740143099000,11.310098876953125,-0.6161339282989502,0.07895433157682419,0.515799343585968
1700823740153128000,11.3201279296875,-0.6039166450500488,-0.23808473348617554,0.32643112540245056
1700823740163044000,11.330044189453124,-0.4469242990016937,-0.5545129179954529,0.17127133905887604
1700823740172947000,11.339947021484376,-0.20013472437858582,-0.5575672388076782,0.09674578160047531
1700823740183214000,11.350214111328125,0.005726861767470837,-0.37430769205093384,0.042989641427993774
1700823740193135000,11.360135009765624,0.06925684958696365,-0.22403483092784882,-0.007712173741310835
1700823740203147000,11.37014697265625,-0.06391177326440811,-0.164170041680336,-0.05841398984193802
1700823740213057000,11.38005712890625,-0.38461601734161377,-0.10980302840471268,-0.11583532392978668
1700823740223188000,11.39018798828125,-0.7260897159576416,-0.0981965884566307,-0.25877779722213745
1700823740233213000,11.400212890625,-1.0565677881240845,-0.18310685455799103,-0.5495496392250061
1700823740242996000,11.409995849609375,-1.3351223468780518,-0.1843285858631134,-0.9405034184455872
1700823740253005000,11.420005126953125,-1.4768431186676025,-0.19288070499897003,-1.3033573627471924
1700823740263003000,11.4300029296875,-1.4108695983886719,-0.47021353244781494,-1.4963908195495605
1700823740273069000,11.440069091796875,-1.20317542552948,-0.8764389157295227,-1.5434273481369019
1700823740282979000,11.44997900390625,-1.0095311403274536,-1.1953105926513672,-1.461571455001831
1700823740293196000,11.460196044921876,-0.8867472410202026,-1.316261887550354,-1.2960269451141357
1700823740302987000,11.469987060546876,-0.8146651387214661,-0.8709411025047302,-1.1298716068267822
1700823740312949000,11.479948974609375,-0.615523099899292,0.038637228310108185,-0.8641452193260193
1700823740322936000,11.48993603515625,-0.12255483865737915,0.5120577812194824,-0.37117698788642883
1700823740333227000,11.50022705078125,0.5713880658149719,0.49984049797058105,0.10835222154855728
1700823740343061000,11.51006103515625,1.1578186750411987,0.4155410826206207,0.3258202373981476
1700823740353175000,11.520175048828126,1.7008779048919678,0.49984049797058105,0.46815183758735657
1700823740363212000,11.5302119140625,2.154139995574951,0.736245334148407,0.4724279046058655
1700823740373219000,11.540218994140625,2.53959584236145,0.9024006724357605,0.32765284180641174
1700823740383026000,11.55002587890625,2.907947540283203,0.803440511226654,0.20059287548065186
1700823740392977000,11.559976806640625,2.857245922088623,0.49006664752960205,0.14072808623313904
1700823740403229000,11.57022900390625,2.3447299003601074,0.37950003147125244,0.028939740732312202
1700823740413223000,11.580222900390625,1.1456013917922974,0.2970332205295563,-0.17936530709266663
1700823740423206000,11.590205810546875,0.7228826880455017,-0.32421672344207764,-0.6332381963729858
1700823740433656000,11.600656005859374,0.4205043613910675,-0.528245747089386,-0.718759298324585
1700823740443210000,11.6102099609375,0.1474476009607315,-0.40485092997550964,-0.5471062064170837
1700823740452989000,11.619989013671875,-0.1964695304632187,-0.022449297830462456,-0.2960405647754669
1700823740462985000,11.62998486328125,-0.5287802219390869,0.4161519408226013,-0.11705705523490906
1700823740472995000,11.6399951171875,-0.861090898513794,0.8633053302764893,-0.13416127860546112
1700823740482960000,11.6499599609375,-1.1353694200515747,1.0954340696334839,-0.18425223231315613
1700823740492971000,11.659970947265625,-1.2624293565750122,1.0123564004898071,-0.16165021061897278
1700823740503128000,11.670128173828125,-1.3314571380615234,0.7478517889976501,-0.14332425594329834
1700823740513013000,11.680012939453125,-1.2318861484527588,0.471129834651947,-0.08590292185544968
1700823740523150000,11.690150146484376,-1.0211375951766968,0.37339138984680176,0.0014508049935102463
1700823740533056000,11.700055908203124,-0.8244389891624451,0.38438695669174194,0.05642867833375931
1700823740542952000,11.709951904296876,-0.5813146233558655,0.4308127164840698,-0.02054034359753132
1700823740553144000,11.72014404296875,-0.2520582675933838,0.4778493344783783,-0.11217013001441956
1700823740563078000,11.730077880859374,0.16638441383838654,0.4735732674598694,-0.10850493609905243
1700823740573155000,11.740155029296876,0.5286275148391724,0.38011088967323303,-0.1659262776374817
1700823740583081000,11.7500810546875,0.8377253413200378,0.12965615093708038,-0.29970577359199524
1700823740592987000,11.75998681640625,1.0686323642730713,-0.20693060755729675,-0.4902957081794739
1700823740603102000,11.77010205078125,1.2928199768066406,-0.44028112292289734,-0.6662248969078064
1700823740613120000,11.7801201171875,1.5481616258621216,-0.5154175758361816,-0.7926740050315857
1700823740623049000,11.790049072265624,1.7607426643371582,-0.47448956966400146,-0.8910233378410339
1700823740632921000,11.799921142578125,1.837100863456726,-0.3663664162158966,-1.042517900466919
1700823740643037000,11.810036865234375,1.7772361040115356,-0.1488984078168869,-1.2978595495224
1700823740653113000,11.820113037109374,1.5530484914779663,-0.031001411378383636,-1.6393332481384277
1700823740663155000,11.830155029296876,1.2195161581039429,-0.10919216275215149,-1.908113956451416
1700823740673135000,11.840135009765625,0.8523861169815063,-0.14706580340862274,-1.9392681121826172
1700823740683081000,11.8500810546875,0.5194645524024963,-0.15134187042713165,-1.5532011985778809
1700823740693114000,11.860114013671875,0.2592359483242035,-0.16294831037521362,-0.6998224854469299
1700823740703108000,11.870108154296876,0.15599970519542694,-0.12202033400535583,0.3050508201122284
1700823740713067000,11.88006689453125,0.19204075634479523,-0.15195272862911224,1.0576368570327759
1700823740723090000,11.89008984375,0.3746894598007202,-0.22281309962272644,1.4516448974609375
1700823740732996000,11.89999609375,1.220126986503601,-0.06459899991750717,0.848720908164978
1700823740742921000,11.9099208984375,1.339856505393982,0.18707747757434845,0.38690677285194397
1700823740753047000,11.920047119140625,1.0735193490982056,0.17302757501602173,0.05520694702863693
1700823740763001000,11.9300009765625,0.5872705578804016,0.07651086896657944,-0.08895725011825562
1700823740773088000,11.940087890625,0.07780896127223969,0.00931569468230009,-0.07124216109514236
1700823740783206000,11.950205810546874,-0.22395847737789154,0.03191770985722542,-0.005879578180611134
1700823740792994000,11.959994140625,-0.30520355701446533,0.09483683109283447,-0.05780312418937683
1700823740803260000,11.970260009765624,-0.21784982085227966,0.11194105446338654,-0.14637859165668488
1700823740813246000,11.980245849609375,-0.07002042979001999,0.08567385375499725,-0.17753271758556366
1700823740823244000,11.990244140625,0.02038762718439102,0.03130684420466423,-0.1451568603515625
1700823740833009000,12.0000087890625,0.02710714563727379,-0.03405573591589928,-0.056581392884254456
1700823740843224000,12.01022412109375,-0.035811975598335266,-0.07559457421302795,0.0466548316180706
1700823740853269000,12.02026904296875,-0.11400272697210312,-0.06643159687519073,0.09796751290559769
1700823740863238000,12.03023779296875,-0.17936530709266663,-0.03527746722102165,0.07658722996711731
1700823740873214000,12.0402138671875,-0.25877779722213745,0.01970040425658226,0.02344195358455181
1700823740883110000,12.05010986328125,-0.2880993187427521,0.07895433157682419,0.0014508049935102463
1700823740892995000,12.0599951171875,-0.21418462693691254,0.07651086896657944,0.02344195358455181
1700823740902964000,12.0699638671875,-0.11644618958234787,0.04535674303770065,0.0069485921412706375
1700823740913260000,12.080260009765626,-0.0541379339993,-0.020616702735424042,-0.06818783283233643
1700823740922927000,12.089927001953125,-0.03459024429321289,-0.0835358202457428,-0.17814357578754425
1700823740933031000,12.100031005859375,-0.05047274008393288,-0.10980302840471268,-0.27343854308128357
1700823740942924000,12.109924072265626,-0.06085744872689247,-0.07742717117071152,-0.3058144152164459
1700823740953062000,12.120061767578125,-0.053527068346738815,-0.08536841720342636,-0.32475122809410095
1700823740963041000,12.130041015625,-0.09323330968618393,-0.08597928285598755,-0.36445748805999756
1700823740973110000,12.140110107421876,-0.08590292185544968,-0.11285735666751862,-0.4078288972377777
1700823740983097000,12.15009716796875,-0.012599095702171326,-0.13790282607078552,-0.47013717889785767
1700823740993056000,12.160055908203125,0.04115704447031021,-0.10002918541431427,-0.5153411626815796
1700823741003179000,12.170178955078125,0.042989641427993774,-0.012675453908741474,-0.4371504485607147
1700823741013077000,12.180076904296875,-0.04008803144097328,0.19196440279483795,-0.17264579236507416
1700823741023169000,12.1901689453125,-0.18913915753364563,0.33368512988090515,0.17493653297424316
1700823741033149000,12.20014892578125,-0.2465604841709137,0.45036038756370544,0.38324159383773804
1700823741043205000,12.210205078125,-0.373009592294693,0.14676037430763245,0.5377904772758484
1700823741053220000,12.22022021484375,-0.24350616335868835,0.038637228310108185,0.30749428272247314
1700823741063178000,12.230177978515625,-0.1799761801958084,-0.12324206531047821,0.0014508049935102463
1700823741073093000,12.240093017578126,-0.27527114748954773,-0.15622878074645996,-0.2154063582420349
1700823741083146000,12.25014599609375,-0.3369685411453247,-0.02122756652534008,-0.27954721450805664
1700823741093092000,12.260092041015625,-0.4237114191055298,0.020311269909143448,-0.2361757755279541
1700823741103078000,12.270077880859375,-0.5190063714981079,0.024587325751781464,-0.17386752367019653
1700823741113112000,12.280112060546875,-0.5220606923103333,0.04841107130050659,-0.11339186131954193
1700823741122905000,12.289905029296875,-0.4994587004184723,0.128434419631958,-0.09506590664386749
1700823741132907000,12.299906982421875,-0.44631341099739075,0.19868391752243042,-0.11766792088747025
1700823741142977000,12.30997705078125,-0.3681226670742035,0.18280142545700073,-0.1854739636182785
1700823741153031000,12.320031005859375,-0.2624429762363434,-0.013897184282541275,-0.26977336406707764
1700823741163029000,12.330029052734375,-0.09140071272850037,-0.1647808998823166,-0.3082578778266907
1700823741173087000,12.3400869140625,-0.018096882849931717,-0.30894508957862854,-0.3180317282676697
1700823741182889000,12.349888916015624,-0.14698944985866547,-0.39935314655303955,-0.3284164369106293
1700823741192985000,12.359985107421876,-0.3216969072818756,-0.4005748927593231,-0.31009048223495483
1700823741202975000,12.36997509765625,-0.38522690534591675,-0.26374107599258423,-0.23984096944332123
1700823741212918000,12.37991796875,-0.37545305490493774,-0.08964447677135468,-0.08712465316057205
1700823741222941000,12.38994091796875,-0.35590535402297974,0.06062837690114975,0.11140654981136322
1700823741232912000,12.399911865234374,-0.29481884837150574,0.18707747757434845,0.2751184403896332
1700823741242976000,12.40997607421875,-0.23861923813819885,0.19257527589797974,0.33864840865135193
1700823741253003000,12.4200029296875,-0.24228443205356598,0.09483683109283447,0.25251641869544983
1700823741262914000,12.4299140625,-0.37484219670295715,-0.007177666760981083,0.07841982692480087
1700823741272933000,12.43993310546875,-0.5440518856048584,-0.025503624230623245,-0.05780312418937683
1700823741283028000,12.450028076171876,-0.7847327589988708,0.04902193695306778,-0.12133310735225677
1700823741293232000,12.460232177734374,-1.098717451095581,0.12293662875890732,-0.10422888398170471
1700823741302926000,12.469926025390626,-1.3064117431640625,0.24388794600963593,0.01794416643679142
1700823741312904000,12.479904052734375,-1.1616365909576416,0.36972618103027344,0.21036672592163086
1700823741322949000,12.48994921875,-0.5336671471595764,0.3764457106590271,0.4620431959629059
1700823741332933000,12.49993310546875,-0.2465604841709137,0.3318525552749634,0.4705953001976013
1700823741342985000,12.50998486328125,-0.09017898142337799,0.20295998454093933,0.40278926491737366
1700823741353010000,12.520010009765626,-0.010155634954571724,0.08261952549219131,0.0619264654815197
1700823741363108000,12.530108154296874,-0.04008803144097328,0.1137736514210701,-0.05841398984193802
1700823741372899000,12.539899169921876,-0.11644618958234787,0.3562871515750885,-0.09689849615097046
1700823741382994000,12.549993896484375,-0.20746511220932007,0.4509712755680084,0.02038762718439102
1700823741393062000,12.560061767578125,-0.2709950804710388,0.40393465757369995,0.15477798879146576
1700823741403016000,12.570015869140626,-0.29970577359199524,0.2249511331319809,0.20425806939601898
1700823741412994000,12.579994140625,-0.3522401750087738,-0.06948592513799667,0.07903069257736206
