time,seconds_elapsed,z,y,x
1700823729082996000,0.249995849609375,-0.07269296050071716,-0.46364670991897583,0.5448917746543884
1700823729092927000,0.259927001953125,-0.05192354694008827,-0.5858197808265686,0.34208452701568604
1700823729102929000,0.269928955078125,-0.07147123664617538,-0.6047565937042236,0.12828169763088226
1700823729112997000,0.2799970703125,-0.11911872029304504,-0.5204572081565857,-0.060475658625364304
1700823729122965000,0.289965087890625,-0.17287486791610718,-0.40622538328170776,-0.20402899384498596
1700823729133038000,0.3000380859375,-0.23090706765651703,-0.3549126982688904,-0.2791654169559479
1700823729142947000,0.309947021484375,-0.24434609711170197,-0.31031954288482666,-0.28466320037841797
1700823729153102000,0.32010205078125,-0.20525072515010834,-0.2541199326515198,-0.24190263450145721
1700823729163343000,0.330343017578125,-0.18570303916931152,-0.16310101747512817,-0.1514945775270462
1700823729173091000,0.340091064453125,-0.21074850857257843,-0.1417207419872284,-0.013439035043120384
1700823729183182000,0.35018212890625,-0.25473082065582275,-0.18448130786418915,0.12522737681865692
1700823729193162000,0.360161865234375,-0.29077184200286865,-0.2064724564552307,0.20097467303276062
1700823729203148000,0.37014794921875,-0.2675589919090271,-0.2626720666885376,0.24556782841682434
1700823729213059000,0.38005908203125,-0.18509216606616974,-0.2535090744495392,0.2871066629886627
1700823729223034000,0.3900341796875,-0.16371189057826996,-0.2638937830924988,0.32986724376678467
1700823729232973000,0.39997314453125,-0.29993483424186707,-0.1062905490398407,0.38240164518356323
1700823729242988000,0.409988037109375,-0.40194934606552124,-0.06291911751031876,0.33719760179519653
1700823729252936000,0.41993603515625,-0.46731191873550415,-0.01710422709584236,0.26633724570274353
1700823729263180000,0.430179931640625,-0.46731191873550415,0.05742133408784866,0.21624629199504852
1700823729272986000,0.439986083984375,-0.4196644127368927,0.11972958594560623,0.19608774781227112
1700823729282970000,0.44997021484375,-0.36529740691185,0.16432274878025055,0.21074850857257843
1700823729293155000,0.460155029296875,-0.3292563557624817,0.1667662113904953,0.2480112910270691
1700823729303026000,0.47002587890625,-0.29993483424186707,0.11239920556545258,0.27977627515792847
1700823729313011000,0.480010986328125,-0.2822197377681732,0.007941247895359993,0.28099802136421204
1700823729323113000,0.490113037109375,-0.26633724570274353,-0.11056660860776901,0.21013765037059784
1700823729333142000,0.50014208984375,-0.24862214922904968,-0.2015855312347412,0.09407325088977814
1700823729342954000,0.5099541015625,-0.2541199326515198,-0.20402899384498596,0.009162978269159794
1700823729353314000,0.52031396484375,-0.23335053026676178,-0.1508837193250656,-0.006719517521560192
1700823729362958000,0.5299580078125,-0.19486601650714874,-0.1569923609495163,0.02015855349600315
1700823729372964000,0.539964111328125,-0.14782938361167908,-0.20341812074184418,0.07452555745840073
1700823729382970000,0.54997021484375,-0.10201449692249298,-0.22113321721553802,0.17837265133857727
1700823729392945000,0.55994482421875,-0.06291911751031876,-0.1258382350206375,0.34086281061172485
1700823729402971000,0.569970947265625,-0.024434609338641167,0.04459316283464432,0.5369505286216736
1700823729413142000,0.58014208984375,0.02932153269648552,0.10751228034496307,0.6762278079986572
1700823729422977000,0.58997705078125,0.07208210229873657,-0.0959058403968811,0.6701191663742065
1700823729432946000,0.59994580078125,0.1258382350206375,-0.3878994286060333,0.5485569834709167
1700823729442937000,0.60993701171875,0.2321287989616394,-0.5283984541893005,0.38667771220207214
1700823729452921000,0.619921142578125,0.3219259977340698,-0.5180137157440186,0.21868975460529327
1700823729462934000,0.62993408203125,0.32498031854629517,-0.46303585171699524,0.06291911751031876
1700823729472955000,0.639954833984375,0.24068090319633484,-0.42638394236564636,-0.045204028487205505
1700823729482991000,0.6499912109375,0.14844025671482086,-0.3604104816913605,-0.04703662544488907
1700823729492935000,0.659934814453125,0.10567969083786011,-0.3029891550540924,0.039095375686883926
1700823729502922000,0.669921875,0.11484266817569733,-0.26022860407829285,0.12950342893600464
1700823729512953000,0.679953125,0.1508837193250656,-0.20891591906547546,0.15454891324043274
1700823729522891000,0.68989111328125,0.17043140530586243,-0.16554448008537292,0.1362229436635971
1700823729532943000,0.699943115234375,0.1319468915462494,-0.1771509200334549,0.1270599663257599
1700823729542917000,0.709917236328125,-0.08124507963657379,-0.23640485107898712,0.21563543379306793
1700823729553043000,0.72004296875,-0.18387043476104736,-0.39767327904701233,0.29016098380088806
1700823729562963000,0.729962890625,-0.27488934993743896,-0.41172316670417786,0.35552358627319336
1700823729572901000,0.739901123046875,-0.3280346393585205,-0.37568211555480957,0.38667771220207214
1700823729583078000,0.750077880859375,-0.29993483424186707,-0.22357667982578278,0.3536909818649292
1700823729592962000,0.759962158203125,-0.1875356286764145,0.009773843921720982,0.2736676335334778
1700823729602926000,0.769926025390625,-0.04092797264456749,0.16554448008537292,0.17959438264369965
1700823729613195000,0.780195068359375,0.09346238523721695,0.2724458873271942,0.15393804013729095
1700823729623013000,0.79001318359375,0.12217304855585098,0.32986724376678467,0.24556782841682434
1700823729632978000,0.79997802734375,0.036041051149368286,0.3439171314239502,0.4288274049758911
1700823729642918000,0.80991796875,-0.08979719132184982,0.2565633952617645,0.6572909951210022
1700823729652980000,0.81997998046875,-0.2015855312347412,0.09346238523721695,0.8448266386985779
1700823729663031000,0.830031005859375,-0.252287358045578,-0.045204028487205505,0.9346238374710083
1700823729672981000,0.83998095703125,-0.24923302233219147,-0.17104226350784302,0.9297369122505188
1700823729682958000,0.8499580078125,-0.20402899384498596,-0.2877175211906433,0.8717046976089478
1700823729692923000,0.8599228515625,-0.11178833991289139,-0.33047810196876526,0.788016140460968
1700823729703037000,0.870036865234375,0.024434609338641167,-0.2871066629886627,0.7055493593215942
1700823729713194000,0.880194091796875,0.14966198801994324,-0.20036379992961884,0.6432411074638367
1700823729723206000,0.890205810546875,0.20586158335208893,-0.12767083942890167,0.6108652353286743
1700823729733049000,0.900049072265625,0.21013765037059784,-0.14355333149433136,0.5723807215690613
1700823729743112000,0.91011181640625,0.2021963894367218,-0.21868975460529327,0.5143485069274902
1700823729753536000,0.920535888671875,0.18814650177955627,-0.26572638750076294,0.4605923891067505
1700823729763134000,0.930134033203125,0.15515977144241333,-0.252287358045578,0.42271876335144043
1700823729772962000,0.939962158203125,0.12278391420841217,-0.21868975460529327,0.39095374941825867
1700823729783261000,0.950260986328125,0.1215621829032898,-0.15454891324043274,0.3445279896259308
1700823729792979000,0.95997900390625,0.14782938361167908,-0.03726277872920036,0.2541199326515198
1700823729803211000,0.9702109375,0.18448130786418915,0.04092797264456749,0.11056660860776901
1700823729813244000,0.980243896484375,0.23518311977386475,0.03298672288656235,-0.05009094998240471
1700823729822990000,0.989989990234375,0.2822197377681732,0.06108652427792549,-0.19303341209888458
1700823729833253000,1.000253173828125,0.2871066629886627,0.11545353382825851,-0.2675589919090271
1700823729843107000,1.010107177734375,0.26145032048225403,0.2632829248905182,-0.26145032048225403
1700823729853077000,1.020076904296875,0.20952677726745605,0.3139847218990326,-0.09162978827953339
1700823729863044000,1.030044189453125,0.20341812074184418,0.2877175211906433,-0.02626720629632473
1700823729873062000,1.040061767578125,0.2272418737411499,0.24923302233219147,-0.022602014243602753
1700823729883167000,1.0501669921875,0.2620611786842346,0.14844025671482086,-0.0507018156349659
1700823729892997000,1.0599970703125,0.27061331272125244,0.1007927656173706,-0.07635815441608429
1700823729902930000,1.069929931640625,0.25473082065582275,0.15393804013729095,-0.10934487730264664
1700823729913022000,1.08002197265625,0.20525072515010834,0.294437050819397,-0.1514945775270462
1700823729923110000,1.09010986328125,0.14966198801994324,0.43737950921058655,-0.13988813757896423
1700823729933212000,1.1002119140625,0.1215621829032898,0.5290092825889587,-0.03481931984424591
1700823729943123000,1.110123046875,0.09285151958465576,0.5962044596672058,0.08796459436416626
1700823729953118000,1.120117919921875,0.07513642311096191,0.5595525503158569,0.1466076523065567
1700823729963202000,1.1302021484375,0.10690141469240189,0.4190535545349121,0.08796459436416626
1700823729973179000,1.140178955078125,0.1716531366109848,0.22357667982578278,-0.039706241339445114
1700823729983021000,1.15002099609375,0.2223549485206604,0.04337143152952194,-0.14416420459747314
1700823729993045000,1.160044921875,0.22479841113090515,-0.02871066704392433,-0.16859880089759827
1700823730003129000,1.170129150390625,0.1820378452539444,-0.036041051149368286,-0.10934487730264664
1700823730013109000,1.18010888671875,0.1160643994808197,-0.01771509274840355,-0.02382374368607998
1700823730023091000,1.190091064453125,0.048258353024721146,-0.001832595793530345,0.025045474991202354
1700823730033192000,1.20019189453125,0.0024434609804302454,0.04642575979232788,0.027488935738801956
1700823730043069000,1.21006884765625,-0.025045474991202354,0.18509216606616974,0.02382374368607998
1700823730053005000,1.220005126953125,-0.025045474991202354,0.41172316670417786,0.06414084881544113
1700823730063154000,1.23015380859375,0.02382374368607998,0.5845980644226074,0.16249015927314758
1700823730073023000,1.24002294921875,0.09651670604944229,0.5485569834709167,0.2583959996700287
1700823730083256000,1.250256103515625,0.14538592100143433,0.24495697021484375,0.2779437005519867
1700823730093196000,1.260196044921875,0.14355333149433136,-0.13377949595451355,0.2028072625398636
1700823730103072000,1.270072021484375,0.10201449692249298,-0.40133845806121826,0.060475658625364304
1700823730113108000,1.28010791015625,0.042760565876960754,-0.4996877610683441,-0.08552113175392151
1700823730123026000,1.29002587890625,-0.00366519158706069,-0.47708576917648315,-0.17470745742321014
1700823730133145000,1.30014501953125,-0.007941247895359993,-0.3738495409488678,-0.16554448008537292
1700823730143218000,1.310218017578125,0.02015855349600315,-0.2217440903186798,-0.09162978827953339
1700823730152934000,1.319933837890625,0.04948008432984352,-0.05619960278272629,0.00366519158706069
1700823730162946000,1.329946044921875,0.04581489413976669,0.08185594528913498,0.11911872029304504
1700823730173228000,1.34022802734375,0.022602014243602753,0.19120082259178162,0.3683517575263977
1700823730182962000,1.3499619140625,0.0006108652451075613,0.2168571650981903,0.4550946056842804
1700823730193154000,1.360154052734375,-0.03237585723400116,0.2669481039047241,0.4715879559516907
1700823730202960000,1.3699599609375,-0.07208210229873657,0.2828305959701538,0.4105014503002167
1700823730212952000,1.3799521484375,-0.07452555745840073,0.2480112910270691,0.2816088795661926
1700823730222960000,1.389960205078125,-0.03848451003432274,0.1722639948129654,0.13072516024112701
1700823730233122000,1.4001220703125,0.015271631069481373,0.10567969083786011,0.02321287989616394
1700823730243008000,1.410008056640625,0.0659734457731247,0.06719517707824707,-0.02015855349600315
1700823730253088000,1.420087890625,0.10323622822761536,0.08368854224681854,-0.028099801391363144
1700823730263118000,1.4301181640625,0.12950342893600464,0.15332718193531036,0.004886921960860491
1700823730273198000,1.440197998046875,0.14355333149433136,0.2376265823841095,0.08307767659425735
1700823730283122000,1.450121826171875,0.1466076523065567,0.2669481039047241,0.17287486791610718
1700823730293002000,1.460001953125,0.11850785464048386,0.3188716471195221,0.21319197118282318
1700823730303016000,1.470015869140625,0.08674286305904388,0.44837507605552673,0.303600013256073
1700823730313115000,1.480114990234375,0.014049900695681572,0.4001167416572571,0.3488040566444397
1700823730323129000,1.490129150390625,-0.04764748737215996,0.21441370248794556,0.29504790902137756
1700823730333135000,1.500135009765625,-0.07330382615327835,-0.006719517521560192,0.1722639948129654
1700823730343001000,1.5100009765625,-0.07208210229873657,-0.1814269721508026,0.0354301854968071
1700823730353022000,1.52002197265625,-0.07452555745840073,-0.27061331272125244,-0.07452555745840073
1700823730363088000,1.530087890625,-0.11362093687057495,-0.40683624148368835,-0.1661553531885147
1700823730372932000,1.53993212890625,-0.21013765037059784,-0.588874101638794,-0.24434609711170197
1700823730383172000,1.550172119140625,-0.31520646810531616,-0.6188064813613892,-0.2938261926174164
1700823730393183000,1.560182861328125,-0.3781255781650543,-0.503963828086853,-0.2577851414680481
1700823730403197000,1.570197021484375,-0.3536909818649292,-0.32681289315223694,-0.16798794269561768
1700823730413218000,1.580218017578125,-0.2926044464111328,-0.1362229436635971,-0.06169738993048668
1700823730422977000,1.58997705078125,-0.20525072515010834,0.02321287989616394,0.04703662544488907
1700823730433139000,1.600138916015625,-0.09162978827953339,0.1618792861700058,0.16859880089759827
1700823730442974000,1.609973876953125,0.05925392732024193,0.152105450630188,0.304210901260376
1700823730453229000,1.62022900390625,0.23090706765651703,-0.27611109614372253,0.42149701714515686
1700823730463208000,1.6302080078125,0.3842342495918274,-1.189354658126831,0.33292156457901
1700823730473174000,1.640174072265625,0.4697553813457489,-2.4019222259521484,-0.12217304855585098
1700823730483217000,1.650216796875,0.4538728892803192,-1.6120734214782715,-0.19608774781227112
1700823730493229000,1.66022900390625,0.5155702829360962,-1.3628404140472412,-0.2535090744495392
1700823730503205000,1.670205078125,0.6450737118721008,-2.026240110397339,-0.3500257730484009
1700823730513228000,1.68022802734375,0.7098253965377808,-1.935831904411316,-0.46364670991897583
1700823730522981000,1.689981201171875,0.6017022728919983,-0.7550294399261475,-0.6340781450271606
1700823730533217000,1.700217041015625,0.2822197377681732,0.7727445363998413,-0.9743300676345825
1700823730543080000,1.710079833984375,-0.20952677726745605,1.8038851022720337,-1.405600905418396
1700823730553015000,1.72001513671875,-0.6511823534965515,2.0555615425109863,-1.785559058189392
1700823730562931000,1.729930908203125,-0.8087855577468872,1.8503108024597168,-2.021353006362915
1700823730573165000,1.7401650390625,-0.607200026512146,1.6725490093231201,-1.9175059795379639
1700823730583047000,1.750046875,-0.2174680233001709,1.3103059530258179,-1.6505578756332397
1700823730593144000,1.76014404296875,0.06658431142568588,0.5772676467895508,-1.4880677461624146
1700823730603138000,1.770137939453125,0.08307767659425735,-0.13377949595451355,-1.547932505607605
1700823730613238000,1.780238037109375,-0.1007927656173706,-0.6768386960029602,-1.8545868396759033
1700823730623212000,1.7902119140625,-0.3646865487098694,-0.9480628371238708,-2.2815816402435303
1700823730633106000,1.80010595703125,-0.6407976150512695,-0.7812966704368591,-2.671313762664795
1700823730643174000,1.810173828125,-0.8827002644538879,-0.5229006409645081,-2.961474657058716
1700823730653152000,1.820152099609375,-1.0109820365905762,-0.24373523890972137,-3.039665460586548
1700823730663217000,1.830216796875,-0.9492846131324768,0.12217304855585098,-2.888781785964966
1700823730673207000,1.84020703125,-0.7104362845420837,0.3579670190811157,-2.635272741317749
1700823730683291000,1.850290771484375,-0.34574973583221436,0.4245513379573822,-2.283414363861084
1700823730692990000,1.859989990234375,0.05864306539297104,0.2840523421764374,-1.8600846529006958
1700823730703258000,1.870258056640625,0.39645153284072876,0.07269296050071716,-1.395827054977417
1700823730713261000,1.880260986328125,0.5247332453727722,0.0403171069920063,-0.912021815776825
1700823730723319000,1.890319091796875,0.45875978469848633,0.19303341209888458,-0.39156460762023926
1700823730733250000,1.90025,0.2932153046131134,0.21380282938480377,0.08368854224681854
1700823730743007000,1.910007080078125,0.11056660860776901,0.02626720629632473,0.4392121136188507
1700823730753258000,1.920258056640625,-0.0354301854968071,-0.11239920556545258,0.6798930168151855
1700823730763265000,1.93026513671875,-0.12095131725072861,-0.1264491081237793,0.7806857824325562
1700823730773236000,1.940236083984375,-0.16004669666290283,-0.1270599663257599,0.7312057018280029
1700823730783179000,1.950178955078125,-0.14905111491680145,0.056810468435287476,0.3701843321323395
1700823730793106000,1.96010595703125,-0.12889257073402405,0.49846604466438293,0.1472185254096985
1700823730803177000,1.970177001953125,-0.1814269721508026,0.911410927772522,0.045204028487205505
1700823730813191000,1.98019091796875,-0.2840523421764374,1.0445796251296997,0.10812314599752426
1700823730823118000,1.9901181640625,-0.34697145223617554,0.8649851679801941,0.25045475363731384
1700823730833073000,2.000072998046875,-0.33292156457901,0.4905247986316681,0.3585779070854187
1700823730843084000,2.010083984375,-0.3237585723400116,0.033597588539123535,0.3830125033855438
1700823730853169000,2.0201689453125,-0.3591887652873993,-0.3439171314239502,0.3335324227809906
1700823730863266000,2.03026611328125,-0.39217549562454224,-0.5320636034011841,0.25961771607398987
1700823730873146000,2.04014599609375,-0.3836233615875244,-0.5589417219161987,0.20525072515010834
1700823730883167000,2.0501669921875,-0.34758231043815613,-0.5564982295036316,0.21380282938480377
1700823730893151000,2.06015087890625,-0.2993239760398865,-0.5693264007568359,0.28466320037841797
1700823730903329000,2.0703291015625,-0.2565633952617645,-0.5381723046302795,0.35613444447517395
1700823730913312000,2.08031201171875,-0.23151792585849762,-0.40744712948799133,0.37140607833862305
1700823730923168000,2.09016796875,-0.19975294172763824,-0.18509216606616974,0.3237585723400116
1700823730933320000,2.10031982421875,-0.1508837193250656,0.00427605677396059,0.2370157092809677
1700823730943197000,2.110197021484375,-0.11850785464048386,0.1258382350206375,0.17776179313659668
1700823730953418000,2.12041796875,-0.1111774742603302,0.23945917189121246,0.2174680233001709
1700823730963214000,2.130214111328125,-0.10567969083786011,0.32009339332580566,0.36102136969566345
1700823730973154000,2.140154052734375,-0.09346238523721695,0.30482175946235657,0.5589417219161987
1700823730983419000,2.1504189453125,-0.051312681287527084,0.2174680233001709,0.7220427393913269
1700823730993237000,2.160237060546875,0.07147123664617538,0.22968533635139465,0.8063421249389648
1700823731003336000,2.1703359375,0.23151792585849762,0.36590829491615295,0.7574729323387146
1700823731013367000,2.180366943359375,0.34086281061172485,0.4691445231437683,0.5412266254425049
1700823731023239000,2.190239013671875,0.3933972120285034,0.4593706727027893,0.2590068578720093
1700823731033404000,2.20040380859375,0.38667771220207214,0.3988949954509735,0.02076941914856434
1700823731043313000,2.21031298828125,0.3396410644054413,0.3891211748123169,-0.1264491081237793
1700823731053007000,2.220007080078125,0.30115658044815063,0.4251621961593628,-0.19853121042251587
1700823731063153000,2.23015283203125,0.2773328125476837,0.44654250144958496,-0.23090706765651703
1700823731073056000,2.240055908203125,0.30054569244384766,0.45326200127601624,-0.1716531366109848
1700823731083088000,2.250087890625,0.39095374941825867,0.34574973583221436,0.029932396486401558
1700823731093046000,2.2600458984375,0.5357288122177124,0.05192354694008827,0.5833762884140015
1700823731103157000,2.270156982421875,0.4948008358478546,-0.14355333149433136,0.7965682744979858
1700823731113151000,2.28015087890625,0.44776421785354614,0.1014036312699318,0.940732479095459
1700823731123163000,2.290162841796875,0.4141666293144226,0.31031954288482666,1.0195341110229492
1700823731133151000,2.30015087890625,0.39217549562454224,0.33108896017074585,1.043968677520752
1700823731143168000,2.31016796875,0.36224308609962463,0.19914206862449646,1.026253581047058
1700823731153235000,2.32023486328125,0.3176499307155609,0.06230825558304787,0.949895441532135
1700823731163212000,2.3302119140625,0.252287358045578,0.02076941914856434,0.7953465580940247
1700823731173222000,2.340221923828125,0.1875356286764145,0.10873401165008545,0.5949827432632446
1700823731183206000,2.350205810546875,0.17348572611808777,0.24556782841682434,0.3830125033855438
1700823731193219000,2.360218994140625,0.21013765037059784,0.31520646810531616,0.24862214922904968
1700823731203234000,2.370234130859375,0.252287358045578,0.2577851414680481,0.21563543379306793
1700823731213011000,2.380010986328125,0.27000242471694946,0.10567969083786011,0.2528982162475586
1700823731222964000,2.3899638671875,0.24923302233219147,-0.07269296050071716,0.3194825351238251
1700823731232992000,2.399991943359375,0.20952677726745605,-0.24678955972194672,0.38240164518356323
1700823731242945000,2.409945068359375,0.18814650177955627,-0.38240164518356323,0.42149701714515686
1700823731252940000,2.41993994140625,0.17531833052635193,-0.42760565876960754,0.42638394236564636
1700823731263122000,2.430121826171875,0.13988813757896423,-0.39156460762023926,0.3897320330142975
1700823731273063000,2.44006298828125,0.07635815441608429,-0.2932153046131134,0.3194825351238251
1700823731283094000,2.450093994140625,-0.02626720629632473,-0.12095131725072861,0.24678955972194672
1700823731293021000,2.46002099609375,-0.09651670604944229,0.10262536257505417,0.2015855312347412
1700823731303092000,2.470092041015625,-0.09773843735456467,0.35185837745666504,0.23518311977386475
1700823731313111000,2.480111083984375,-0.05803219974040985,0.5302310585975647,0.35246923565864563
1700823731322928000,2.48992822265625,0.0012217304902151227,0.5742133259773254,0.5106833577156067
1700823731333077000,2.500076904296875,0.06169738993048668,0.5583308339118958,0.655458390712738
1700823731343149000,2.510149169921875,0.10384709388017654,0.5619960427284241,0.7257078886032104
1700823731353093000,2.520093017578125,0.10201449692249298,0.5540547966957092,0.7189884185791016
1700823731363025000,2.53002490234375,0.06169738993048668,0.48747047781944275,0.6646214127540588
1700823731373137000,2.540136962890625,-0.018325956538319588,0.46731191873550415,0.6065891981124878
1700823731383055000,2.55005517578125,-0.12339477986097336,0.6017022728919983,0.5931501388549805
1700823731393146000,2.56014599609375,-0.20586158335208893,0.6786713004112244,0.6230825781822205
1700823731403142000,2.570141845703125,-0.21135938167572021,0.6035348773002625,0.675616979598999
1700823731413229000,2.58022900390625,-0.13866640627384186,0.44287729263305664,0.5845980644226074
1700823731423088000,2.590088134765625,-0.08796459436416626,0.3445279896259308,0.40622538328170776
1700823731433189000,2.600189208984375,-0.060475658625364304,0.19792033731937408,0.19364428520202637
1700823731443105000,2.61010498046875,-0.04581489413976669,0.0024434609804302454,-0.001832595793530345
1700823731453232000,2.620232177734375,-0.06230825558304787,-0.14538592100143433,-0.13072516024112701
1700823731463246000,2.63024609375,-0.09957103431224823,-0.22296582162380219,-0.16798794269561768
1700823731472980000,2.63997998046875,-0.11362093687057495,-0.2889392673969269,-0.1313360333442688
1700823731483231000,2.65023095703125,-0.0708603709936142,-0.394618958234787,-0.08979719132184982
1700823731493258000,2.660258056640625,0.015882495790719986,-0.4954117238521576,-0.13316862285137177
1700823731503260000,2.670260009765625,0.06230825558304787,-0.46853363513946533,-0.25106561183929443
1700823731513254000,2.68025390625,0.05742133408784866,-0.34147366881370544,-0.3488040566444397
1700823731523097000,2.69009716796875,0.022602014243602753,-0.26511552929878235,-0.32986724376678467
1700823731533264000,2.700263916015625,-0.00733038317412138,-0.3023782968521118,-0.19364428520202637
1700823731543196000,2.71019580078125,-0.0012217304902151227,-0.39095374941825867,-0.006719517521560192
1700823731553170000,2.720169921875,0.028099801391363144,-0.5015203952789307,0.1514945775270462
1700823731563285000,2.730284912109375,0.04337143152952194,-0.6029239892959595,0.22113321721553802
1700823731572974000,2.73997412109375,0.03176499158143997,-0.7061602473258972,0.18509216606616974
1700823731583216000,2.750216064453125,0.02015855349600315,-0.7782423496246338,0.09162978827953339
1700823731593029000,2.760029052734375,0.018936822190880775,-0.8161159753799438,-0.01710422709584236
1700823731603104000,2.77010400390625,-0.027488935738801956,-0.9150761365890503,-0.11362093687057495
1700823731612951000,2.779950927734375,-0.11484266817569733,-1.1105530261993408,-0.19608774781227112
1700823731622938000,2.789938232421875,-0.2015855312347412,-1.2932016849517822,-0.2681698501110077
1700823731633062000,2.800061767578125,-0.23396138846874237,-1.3408491611480713,-0.33597588539123535
1700823731643051000,2.810051025390625,-0.22296582162380219,-1.1673635244369507,-0.37201693654060364
1700823731653125000,2.820125,-0.17898350954055786,-0.9150761365890503,-0.35735616087913513
1700823731663199000,2.830198974609375,-0.12278391420841217,-0.7531968355178833,-0.2968805134296417
1700823731673138000,2.840137939453125,-0.08491026610136032,-0.7831292152404785,-0.19792033731937408
1700823731683066000,2.850066162109375,-0.12828169763088226,-0.921795666217804,-0.08796459436416626
1700823731693290000,2.8602900390625,-0.25045475363731384,-1.035416603088379,0.006108652334660292
1700823731703261000,2.870260986328125,-0.3744603991508484,-1.1582005023956299,0.06963863968849182
1700823731713222000,2.880221923828125,-0.4251621961593628,-1.3041973114013672,0.029932396486401558
1700823731723163000,2.890162841796875,-0.3433062732219696,-1.2681562900543213,-0.08552113175392151
1700823731733157000,2.9001572265625,-0.23029619455337524,-1.0109820365905762,-0.242513507604599
1700823731743201000,2.910200927734375,-0.14294247329235077,-0.788016140460968,-0.4056145250797272
1700823731753096000,2.920095947265625,-0.11301007121801376,-0.6890559792518616,-0.49235737323760986
1700823731763030000,2.930030029296875,-0.1264491081237793,-0.8148942589759827,-0.47769662737846375
1700823731773229000,2.94022900390625,-0.17959438264369965,-1.2180652618408203,-0.38179078698158264
1700823731783026000,2.95002587890625,-0.2681698501110077,-1.7146987915039062,-0.2840523421764374
1700823731792934000,2.959933837890625,-0.36590829491615295,-2.1087067127227783,-0.2590068578720093
1700823731803039000,2.9700390625,-0.44776421785354614,-2.367102861404419,-0.3396410644054413
1700823731813072000,2.98007177734375,-0.4911356568336487,-2.445293664932251,-0.4899139404296875
1700823731823080000,2.990079833984375,-0.5027421116828918,-2.3432791233062744,-0.6475171446800232
1700823731833122000,3.0001220703125,-0.5167919993400574,-2.161241292953491,-0.7568620443344116
1700823731843084000,3.010083984375,-0.578489363193512,-2.1142046451568604,-0.7910705208778381
1700823731853193000,3.02019287109375,-0.6976081132888794,-2.305405378341675,-0.7415903806686401
1700823731863193000,3.030193115234375,-0.8118399381637573,-2.6450464725494385,-0.626747727394104
1700823731873180000,3.040179931640625,-0.8998045325279236,-2.8319711685180664,-0.5503895878791809
1700823731883207000,3.05020703125,-0.9553932547569275,-2.6841418743133545,-0.5406157374382019
1700823731894047000,3.061046875,-0.9669997096061707,-2.2198843955993652,-0.5204572081565857
1700823731903320000,3.070320068359375,-0.9150761365890503,-1.6365079879760742,-0.44165557622909546
1700823731913280000,3.080280029296875,-0.9224064946174622,-1.3878858089447021,-0.4190535545349121
1700823731923337000,3.0903369140625,-0.9450085163116455,-1.5320500135421753,-0.5229006409645081
1700823731933275000,3.10027490234375,-0.8674286603927612,-1.8881844282150269,-0.7226535677909851
1700823731943083000,3.1100830078125,-0.618195652961731,-2.1978931427001953,-0.9663888216018677
1700823731953102000,3.12010205078125,-0.24434609711170197,-2.177123785018921,-1.1838568449020386
1700823731963156000,3.130156005859375,0.11728613078594208,-1.72935950756073,-1.357953429222107
1700823731973144000,3.14014404296875,0.27977627515792847,-0.5247332453727722,-1.441641926765442
1700823731983525000,3.150525146484375,0.17470745742321014,0.5186246037483215,-1.4141530990600586
1700823731993073000,3.160072998046875,-0.1319468915462494,0.9682214260101318,-1.368949055671692
1700823732003180000,3.170179931640625,-0.6029239892959595,1.2583824396133423,-1.3475687503814697
1700823732013192000,3.18019189453125,-1.1282681226730347,1.4581353664398193,-1.3915510177612305
1700823732023104000,3.19010400390625,-1.5735888481140137,1.5522085428237915,-1.5302174091339111
1700823732033305000,3.20030517578125,-1.9254472255706787,1.69148588180542,-1.95965576171875
1700823732043240000,3.210239990234375,-1.8283196687698364,1.7513506412506104,-2.090380907058716
1700823732052974000,3.21997412109375,-1.529606580734253,1.7018705606460571,-1.984701156616211
1700823732062994000,3.229993896484375,-1.1759155988693237,1.550986886024475,-1.6218472719192505
1700823732072979000,3.23997900390625,-0.8436049222946167,1.2803735733032227,-1.094059705734253
1700823732083138000,3.250137939453125,-0.6334672570228577,0.950506329536438,-0.7305948138237
1700823732093168000,3.260168212890625,-0.5992587804794312,0.7189884185791016,-0.7287622094154358
1700823732103026000,3.27002587890625,-0.6688974499702454,0.6230825781822205,-0.8918632864952087
1700823732113204000,3.280203857421875,-0.949895441532135,0.8686503767967224,-1.0604621171951294
1700823732122944000,3.289944091796875,-1.4953981637954712,1.1441506147384644,-1.2107349634170532
1700823732133063000,3.30006298828125,-2.1056525707244873,1.2406673431396484,-1.4037683010101318
1700823732143096000,3.310095947265625,-2.56868839263916,1.1832460165023804,-1.5595389604568481
1700823732153028000,3.320028076171875,-2.8411343097686768,1.0781772136688232,-1.6548339128494263
1700823732163138000,3.330137939453125,-2.881451368331909,1.1325441598892212,-1.6273449659347534
1700823732173030000,3.34002978515625,-2.769052267074585,1.3329079151153564,-1.4624114036560059
1700823732183111000,3.35011083984375,-2.5723536014556885,1.4508049488067627,-1.2290608882904053
1700823732193044000,3.3600439453125,-2.3988678455352783,1.4501941204071045,-1.014647126197815
1700823732203329000,3.3703291015625,-2.3359487056732178,1.4410310983657837,-0.8600982427597046
1700823732213024000,3.38002392578125,-2.3970351219177246,1.474017858505249,-0.7544185519218445
1700823732223094000,3.390093994140625,-2.5717427730560303,1.5528194904327393,-0.6310238242149353
1700823732233130000,3.4001298828125,-2.7653870582580566,1.5680910348892212,-0.46731191873550415
1700823732243068000,3.41006787109375,-2.8173105716705322,1.513113260269165,-0.31031954288482666
1700823732253309000,3.420308837890625,-2.649322509765625,1.5167783498764038,-0.2431243658065796
1700823732263124000,3.4301240234375,-2.2907447814941406,1.4978415966033936,-0.21807889640331268
1700823732272955000,3.439954833984375,-1.8576412200927734,1.3738359212875366,-0.19608774781227112
1700823732283141000,3.45014111328125,-1.4129313230514526,1.264491081237793,-0.15393804013729095
1700823732293090000,3.460090087890625,-1.1239920854568481,1.207069754600525,-0.0708603709936142
1700823732302938000,3.469938232421875,-0.9938777685165405,1.171028733253479,-0.02871066704392433
1700823732313091000,3.480091064453125,-0.8717046976089478,1.186300277709961,-0.16249015927314758
1700823732323000000,3.49,-0.6896668672561646,1.0366383790969849,-0.4086688458919525
1700823732333091000,3.500091064453125,-0.43799036741256714,0.6316346526145935,-0.616973876953125
1700823732343090000,3.51008984375,-0.4508185386657715,-0.4239404797554016,-0.5552765130996704
1700823732352984000,3.519984130859375,-0.494189977645874,-0.7745771408081055,-0.3591887652873993
1700823732363105000,3.53010498046875,-0.5815436840057373,-0.949895441532135,-0.13988813757896423
1700823732372979000,3.53997900390625,-0.7055493593215942,-0.9859365224838257,0.10262536257505417
1700823732383256000,3.550256103515625,-0.8210029006004333,-0.8784242272377014,0.3549126982688904
1700823732393236000,3.560236083984375,-0.8497135639190674,-0.7342600226402283,0.5271766781806946
1700823732402992000,3.5699921875,-0.827111542224884,-0.7953465580940247,0.5546656250953674
1700823732412985000,3.579985107421875,-0.7574729323387146,-0.949895441532135,0.5161811113357544
1700823732423044000,3.590044189453125,-0.6133087277412415,-1.0616837739944458,0.475253164768219
1700823732433011000,3.600010986328125,-0.4648684561252594,-1.1618657112121582,0.42760565876960754
1700823732443192000,3.610192138671875,-0.40133845806121826,-1.205847978591919,0.423329621553421
1700823732453223000,3.620222900390625,-0.4697553813457489,-1.1734721660614014,0.5210680365562439
1700823732462958000,3.6299580078125,-0.6322455406188965,-1.2498302459716797,0.646906316280365
1700823732472995000,3.6399951171875,-0.769690215587616,-1.3329079151153564,0.7312057018280029
1700823732483065000,3.650065185546875,-0.8326093554496765,-1.4618005752563477,0.7739662528038025
1700823732493164000,3.6601640625,-0.8949176073074341,-1.5864170789718628,0.9272934198379517
1700823732503083000,3.6700830078125,-0.8802568316459656,-1.1740829944610596,1.06657075881958
1700823732513074000,3.680073974609375,-0.5821545720100403,-0.1966986060142517,0.8100073337554932
1700823732523068000,3.69006787109375,-0.32498031854629517,0.18936823308467865,0.1362229436635971
1700823732533191000,3.70019091796875,-0.23090706765651703,0.2638937830924988,-0.16065755486488342
1700823732542980000,3.70997998046875,-0.2724458873271942,0.05497787147760391,-0.1258382350206375
1700823732552993000,3.719992919921875,-0.26145032048225403,-0.08857546001672745,-0.17531833052635193
1700823732563106000,3.73010595703125,-0.11362093687057495,-0.3494149148464203,-0.1716531366109848
1700823732573247000,3.7402470703125,0.025656340643763542,-0.8808676600456238,-0.09957103431224823
1700823732583281000,3.750281005859375,0.11056660860776901,-1.7989981174468994,-0.06414084881544113
1700823732592998000,3.759997802734375,0.2474004179239273,-2.7226264476776123,-0.15332718193531036
1700823732603019000,3.77001904296875,0.31581732630729675,-3.3316590785980225,-0.3836233615875244
1700823732613153000,3.780153076171875,0.3335324227809906,-3.411071538925171,-0.6389650702476501
1700823732623195000,3.79019482421875,0.32070425152778625,-2.9242119789123535,-0.7128797173500061
1700823732633027000,3.800027099609375,0.1368338167667389,-1.9792033433914185,-0.5638286471366882
1700823732643047000,3.810046875,-0.11911872029304504,-1.0323622226715088,-0.31154128909111023
1700823732653157000,3.8201572265625,-0.47708576917648315,0.16310101747512817,0.475253164768219
1700823732663007000,3.830007080078125,-0.4502076804637909,0.46303585171699524,0.7996225953102112
1700823732673084000,3.840083984375,-0.4966334402561188,-0.01466076634824276,0.9706648588180542
1700823732683128000,3.850128173828125,-0.6395758986473083,-0.6976081132888794,0.8148942589759827
1700823732693087000,3.8600869140625,-0.7061602473258972,-0.8216137290000916,0.46670106053352356
1700823732703034000,3.8700341796875,-0.7214318513870239,-0.655458390712738,0.09773843735456467
1700823732713185000,3.88018505859375,-0.749531626701355,-0.47708576917648315,-0.23457226157188416
1700823732723035000,3.890034912109375,-0.7916813492774963,-0.3787364661693573,-0.4709770977497101
1700823732733066000,3.90006591796875,-0.7812966704368591,-0.36713001132011414,-0.5705481171607971
1700823732743113000,3.910113037109375,-0.759916365146637,-0.3536909818649292,-0.5656611919403076
1700823732753275000,3.92027490234375,-0.8203920125961304,-0.2877175211906433,-0.49785518646240234
1700823732763251000,3.9302509765625,-1.0085384845733643,-0.40256020426750183,-0.4147774875164032
1700823732773235000,3.94023486328125,-1.2785409688949585,-0.578489363193512,-0.32559117674827576
1700823732783085000,3.9500849609375,-1.5741997957229614,-0.7605272531509399,-0.2217440903186798
1700823732793166000,3.960166015625,-1.8674150705337524,-1.2315043210983276,-0.11911872029304504
1700823732803351000,3.97035107421875,-2.069000482559204,-1.8741345405578613,-0.07147123664617538
1700823732813258000,3.980258056640625,-2.051896333694458,-2.4043655395507812,-0.1007927656173706
1700823732823306000,3.990305908203125,-1.863139033317566,-2.6926939487457275,-0.13316862285137177
1700823732833373000,4.000373046875,-1.6988162994384766,-2.6529877185821533,-0.12400564551353455
1700823732843371000,4.01037109375,-1.730581283569336,-2.4245240688323975,-0.05192354694008827
1700823732853274000,4.020274169921875,-1.9511035680770874,-2.264477491378784,0.12339477986097336
1700823732863369000,4.030368896484375,-2.1087067127227783,-2.043344259262085,0.3494149148464203
1700823732873317000,4.040317138671875,-1.9706512689590454,-1.3939944505691528,0.46303585171699524
1700823732883171000,4.050171142578125,-1.5259413719177246,-0.5626068711280823,0.3927863538265228
1700823732893157000,4.0601572265625,-1.0268645286560059,-0.4990769028663635,0.06536258012056351
1700823732903028000,4.070028076171875,-0.5962044596672058,-1.0482447147369385,-0.37690386176109314
1700823732913095000,4.080094970703125,-0.09162978827953339,-1.6890424489974976,-0.7263187766075134
1700823732923003000,4.0900029296875,0.4508185386657715,-2.2485949993133545,-0.7269296646118164
1700823732933062000,4.100061767578125,0.8210029006004333,-2.473393440246582,-0.403781920671463
1700823732943133000,4.1101328125,0.9352346658706665,-2.1563544273376465,0.04703662544488907
1700823732953153000,4.120153076171875,0.7757988572120667,-1.5656476020812988,0.43676865100860596
1700823732963212000,4.1302119140625,0.07757988572120667,-1.4782938957214355,0.675616979598999
1700823732973192000,4.14019189453125,-0.17348572611808777,-1.7592918872833252,0.5607742667198181
1700823732983157000,4.150156982421875,-0.1667662113904953,-1.8655824661254883,0.4031710624694824
1700823732993524000,4.16052392578125,0.06841690838336945,-1.9394971132278442,0.2070833146572113
1700823733003212000,4.1702119140625,0.37140607833862305,-2.023796558380127,0.028099801391363144
1700823733013235000,4.18023486328125,0.5864306092262268,-2.001805305480957,-0.029932396486401558
1700823733023244000,4.190244140625,0.5992587804794312,-1.7513506412506104,0.07757988572120667
1700823733033162000,4.200161865234375,0.4795292317867279,-1.5369369983673096,0.2742784917354584
1700823733043116000,4.210115966796875,0.3878994286060333,-1.423926830291748,0.4098905920982361
1700823733053148000,4.22014794921875,0.37568211555480957,-1.4178181886672974,0.4141666293144226
1700823733063042000,4.2300419921875,0.394618958234787,-1.4123204946517944,0.3494149148464203
1700823733072976000,4.239975830078125,0.42210787534713745,-1.3225232362747192,0.39095374941825867
1700823733082953000,4.249952880859375,0.42088615894317627,-1.171028733253479,0.38728857040405273
1700823733093116000,4.260115966796875,0.3933972120285034,-0.9926560521125793,0.2968805134296417
1700823733103009000,4.270009033203125,0.3732386529445648,-0.7849618196487427,0.20036379992961884
1700823733112965000,4.279965087890625,0.3732386529445648,-0.6835582256317139,0.08246681094169617
1700823733122941000,4.28994091796875,0.38728857040405273,-0.6432411074638367,-0.021991148591041565
1700823733132919000,4.2999189453125,0.40744712948799133,-0.6939429044723511,-0.06291911751031876
1700823733143137000,4.310136962890625,0.44715335965156555,-0.8093964457511902,-0.018325956538319588
1700823733152923000,4.3199228515625,0.5009095072746277,-0.9205739498138428,0.04948008432984352
1700823733163065000,4.330065185546875,0.5558874011039734,-1.0500773191452026,0.08124507963657379
1700823733173074000,4.340073974609375,0.6285803318023682,-1.151481032371521,0.12278391420841217
1700823733183137000,4.350136962890625,0.7232644557952881,-1.1801916360855103,0.22357667982578278
1700823733193069000,4.360069091796875,0.8436049222946167,-1.1905763149261475,0.3396410644054413
1700823733203106000,4.37010595703125,1.0690141916275024,-1.2046263217926025,0.4404338300228119
1700823733213093000,4.380093017578125,1.415374755859375,-1.3701707124710083,0.4801400899887085
1700823733223329000,4.3903291015625,1.8832975625991821,-1.7446311712265015,0.4349360466003418
1700823733233124000,4.4001240234375,2.4581217765808105,-2.22782564163208,0.2590068578720093
1700823733243101000,4.410100830078125,2.9071075916290283,-2.7629435062408447,-0.03481931984424591
1700823733253036000,4.4200361328125,3.0604348182678223,-3.4019086360931396,-0.43127086758613586
1700823733263121000,4.430120849609375,2.7507262229919434,-4.031710624694824,-0.9547823667526245
1700823733273116000,4.440115966796875,0.6609562039375305,-3.9046506881713867,-3.288898468017578
1700823733283089000,4.4500888671875,0.3995058834552765,-4.301102161407471,-2.863736152648926
1700823733293247000,4.4602470703125,0.5607742667198181,-3.389080286026001,-1.8136589527130127
1700823733303069000,4.47006884765625,0.7128797173500061,-1.6194037199020386,-0.8002334833145142
1700823733313003000,4.4800029296875,0.5931501388549805,-0.3243694305419922,-0.09957103431224823
1700823733323139000,4.49013916015625,0.5112941861152649,0.23640485107898712,0.1368338167667389
1700823733333253000,4.500253173828125,0.42760565876960754,0.3078760802745819,0.19364428520202637
1700823733343257000,4.510257080078125,0.37690386176109314,0.5497786998748779,0.242513507604599
1700823733353034000,4.520033935546875,0.41111230850219727,0.8784242272377014,0.3604104816913605
1700823733363120000,4.5301201171875,0.2724458873271942,1.074512004852295,0.4086688458919525
1700823733373227000,4.54022705078125,-0.03420845419168472,1.1044443845748901,0.4294382631778717
1700823733383210000,4.5502099609375,-0.23457226157188416,0.9731083512306213,0.46242499351501465
1700823733393002000,4.560001953125,-0.26511552929878235,0.7409795522689819,0.4917465150356293
1700823733402951000,4.569950927734375,-0.24434609711170197,0.5363397002220154,0.50335294008255
1700823733413197000,4.580197021484375,-0.20097467303276062,0.39645153284072876,0.45692721009254456
1700823733422984000,4.58998388671875,-0.07391469180583954,0.22418753802776337,0.3585779070854187
1700823733433231000,4.600231201171875,0.17959438264369965,-0.0006108652451075613,0.3090978264808655
1700823733443001000,4.6100009765625,0.3677408695220947,-0.2816088795661926,0.29993483424186707
1700823733452947000,4.619947021484375,0.3799581825733185,-0.29077184200286865,0.2730567753314972
1700823733462955000,4.629955078125,0.33719760179519653,-0.036651913076639175,0.3219259977340698
1700823733473067000,4.64006689453125,0.3170390725135803,0.12034045159816742,0.44837507605552673
1700823733482982000,4.64998193359375,0.39095374941825867,0.03420845419168472,0.5406157374382019
1700823733493034000,4.660033935546875,0.4660901725292206,-0.1466076523065567,0.6108652353286743
1700823733502976000,4.66997607421875,0.5595525503158569,-0.35124751925468445,0.6591235995292664
1700823733513152000,4.680152099609375,0.5992587804794312,-0.5094616413116455,0.5638286471366882
1700823733522974000,4.689973876953125,0.6218608021736145,-0.7562511563301086,0.37262779474258423
1700823733533192000,4.70019189453125,0.6896668672561646,-1.0427470207214355,0.23457226157188416
1700823733542972000,4.709971923828125,0.7073819637298584,-1.2119566202163696,0.12950342893600464
1700823733552954000,4.7199541015625,0.6633996367454529,-1.0293079614639282,0.0659734457731247
1700823733563247000,4.7302470703125,0.5552765130996704,-0.6487388610839844,0.039095375686883926
1700823733573229000,4.74022900390625,0.3701843321323395,-0.27611109614372253,0.08491026610136032
1700823733583200000,4.750199951171875,-0.3701843321323395,-0.2474004179239273,-0.1264491081237793
1700823733593257000,4.760257080078125,-0.4153883755207062,-0.5558874011039734,-0.2638937830924988
1700823733603019000,4.77001904296875,-0.3530801236629486,-0.8155050873756409,-0.3500257730484009
1700823733612997000,4.7799970703125,-0.2834414839744568,-0.8032878041267395,-0.4141666293144226
1700823733622963000,4.789962890625,-0.3170390725135803,-0.6896668672561646,-0.47280970215797424
1700823733633129000,4.80012890625,-0.3689626157283783,-0.7574729323387146,-0.5717698931694031
1700823733643054000,4.81005419921875,-0.36529740691185,-0.9706648588180542,-0.6524040699005127
1700823733653051000,4.82005078125,-0.29077184200286865,-1.1246029138565063,-0.656069278717041
1700823733663037000,4.830036865234375,-0.15760323405265808,-1.0989465713500977,-0.5461135506629944
1700823733672994000,4.839994140625,-0.012217304669320583,-0.940121591091156,-0.4056145250797272
1700823733683077000,4.8500771484375,0.05864306539297104,-0.6524040699005127,-0.2632829248905182
1700823733693039000,4.8600390625,0.06902777403593063,-0.42088615894317627,-0.11545353382825851
1700823733703019000,4.87001904296875,0.013439035043120384,-0.36163222789764404,-0.07330382615327835
1700823733713156000,4.880156005859375,-0.07941248267889023,-0.3579670190811157,-0.08491026610136032
1700823733723042000,4.8900419921875,-0.12217304855585098,-0.303600013256073,-0.09651670604944229
1700823733733124000,4.9001240234375,-0.1514945775270462,-0.13439035415649414,-0.03481931984424591
1700823733743259000,4.9102587890625,-0.15821409225463867,0.15943582355976105,0.054367005825042725
1700823733753167000,4.9201669921875,-0.19303341209888458,0.3530801236629486,0.17043140530586243
1700823733763378000,4.9303779296875,-0.2773328125476837,0.2064724564552307,0.2932153046131134
1700823733772983000,4.939983154296875,-0.4990769028663635,-0.20036379992961884,0.4856378734111786
1700823733783083000,4.9500830078125,-0.7556403279304504,-0.4086688458919525,0.5174028873443604
1700823733793138000,4.960137939453125,-0.8759807348251343,-0.5571091175079346,0.41233405470848083
1700823733803219000,4.970218994140625,-0.4605923891067505,-0.3182607889175415,0.3017674386501312
1700823733813260000,4.980260009765625,0.29138273000717163,0.14416420459747314,0.5833762884140015
1700823733823303000,4.990302978515625,0.6939429044723511,0.4948008358478546,0.8753699064254761
1700823733833303000,5.000302978515625,0.588263213634491,0.494189977645874,0.9682214260101318
1700823733843312000,5.01031201171875,0.34513887763023376,0.44104471802711487,1.0311405658721924
1700823733853024000,5.02002392578125,0.20341812074184418,0.4905247986316681,1.0574077367782593
1700823733863065000,5.030065185546875,0.43676865100860596,0.5558874011039734,0.9645562171936035
1700823733873141000,5.04014111328125,0.5736024379730225,0.42149701714515686,0.7855727076530457
1700823733883016000,5.050015869140625,0.1869247704744339,0.11178833991289139,0.675006091594696
1700823733893185000,5.06018505859375,-0.9474520087242126,0.26939156651496887,0.5626068711280823
1700823733902980000,5.06997998046875,-1.2260065078735352,0.16249015927314758,0.41599923372268677
1700823733913114000,5.080114013671875,-1.207680583000183,-0.004886921960860491,0.2168571650981903
1700823733923215000,5.090215087890625,-1.081842303276062,-0.19853121042251587,0.02076941914856434
1700823733933057000,5.10005712890625,-0.9755517840385437,-0.3927863538265228,-0.10751228034496307
1700823733942977000,5.10997705078125,-0.8637634515762329,-0.49724429845809937,-0.1716531366109848
1700823733953116000,5.120115966796875,-0.6780604124069214,-0.4899139404296875,-0.23335053026676178
1700823733963045000,5.130045166015625,-0.513737678527832,-0.39767327904701233,-0.2669481039047241
1700823733973091000,5.140091064453125,-0.4349360466003418,-0.1459967941045761,-0.2272418737411499
1700823733982926000,5.149926025390625,-0.4306600093841553,0.15760323405265808,-0.14294247329235077
1700823733993070000,5.160070068359375,-0.40683624148368835,0.413555771112442,-0.029932396486401558
1700823734003081000,5.1700810546875,-0.21074850857257843,0.45265114307403564,0.11545353382825851
1700823734012949000,5.179948974609375,0.08307767659425735,0.18448130786418915,0.3066543638706207
1700823734023188000,5.19018798828125,0.29993483424186707,-0.010995574295520782,0.4086688458919525
1700823734032932000,5.19993212890625,0.3842342495918274,-0.16737708449363708,0.41111230850219727
1700823734043212000,5.2102119140625,0.4398229718208313,-0.32559117674827576,0.3579670190811157
1700823734052987000,5.21998681640625,0.5436700582504272,-0.3543018400669098,0.2919935882091522
1700823734063168000,5.23016796875,0.7519751191139221,-0.2675589919090271,0.18387043476104736
1700823734072968000,5.239968017578125,1.0696250200271606,-0.22479841113090515,0.11667526513338089
1700823734082987000,5.249987060546875,1.3029755353927612,-0.32986724376678467,0.15515977144241333
1700823734093004000,5.260004150390625,1.1789699792861938,-0.50335294008255,0.2321287989616394
1700823734103178000,5.270177978515625,0.8093964457511902,-0.4813618063926697,0.25961771607398987
1700823734113185000,5.28018505859375,0.6065891981124878,-0.22907446324825287,0.3029891550540924
1700823734123111000,5.29011083984375,0.5112941861152649,0.0555887371301651,0.41661009192466736
1700823734133041000,5.300041015625,0.3683517575263977,0.20463985204696655,0.5106833577156067
1700823734143053000,5.310052978515625,0.19486601650714874,0.303600013256073,0.5265658497810364
1700823734153097000,5.320096923828125,0.019547687843441963,0.5192354321479797,0.44165557622909546
1700823734163189000,5.33018896484375,-0.1417207419872284,0.8869763612747192,0.3121521472930908
1700823734173161000,5.340160888671875,-0.24068090319633484,1.3634512424468994,0.1869247704744339
1700823734183122000,5.350121826171875,-0.25961771607398987,1.8026633262634277,0.1612684279680252
1700823734193120000,5.3601201171875,-0.12889257073402405,1.9627100229263306,0.18570303916931152
1700823734203016000,5.370015869140625,0.0861319974064827,1.681712031364441,0.2840523421764374
1700823734213012000,5.380011962890625,0.14049901068210602,0.6536257863044739,0.3274237811565399
1700823734223159000,5.390158935546875,0.22540926933288574,0.14782938361167908,0.39217549562454224
1700823734232989000,5.399989013671875,0.2834414839744568,-0.1563815027475357,0.4789183437824249
1700823734243039000,5.4100390625,0.3396410644054413,-0.3078760802745819,0.5736024379730225
1700823734253248000,5.420248046875,0.30115658044815063,-0.36651915311813354,0.627358615398407
1700823734263255000,5.430255126953125,0.18936823308467865,-0.24617868661880493,0.6444628238677979
1700823734273254000,5.44025390625,0.10262536257505417,-0.022602014243602753,0.5907067060470581
1700823734283192000,5.450192138671875,0.14538592100143433,0.2119702398777008,0.5320636034011841
1700823734293119000,5.460118896484375,0.3439171314239502,0.32498031854629517,0.5155702829360962
1700823734302987000,5.469987060546875,0.7116580009460449,0.2779437005519867,0.5351179838180542
1700823734313238000,5.480238037109375,0.9358455538749695,0.05497787147760391,0.5369505286216736
1700823734323151000,5.490151123046875,0.9914342761039734,-0.12950342893600464,0.4917465150356293
1700823734333000000,5.5,1.0458012819290161,-0.25473082065582275,0.4398229718208313
1700823734343153000,5.51015283203125,1.4208725690841675,-0.48685958981513977,0.455705463886261
1700823734353216000,5.520216064453125,1.6884315013885498,-1.0170906782150269,0.5009095072746277
1700823734363161000,5.5301611328125,1.166752576828003,-1.5625933408737183,0.6395758986473083
1700823734373147000,5.54014697265625,0.8454375267028809,-1.7617353200912476,0.8625417351722717
1700823734382973000,5.549972900390625,0.6707300543785095,-1.7464637756347656,0.7929030656814575
1700823734393000000,5.56,0.33719760179519653,-1.3267992734909058,0.5729916095733643
1700823734403478000,5.57047802734375,-0.02932153269648552,-0.5558874011039734,0.35063666105270386
1700823734413127000,5.580126953125,-0.29138273000717163,0.16432274878025055,0.08429940044879913
1700823734423153000,5.59015283203125,-0.4404338300228119,0.7373143434524536,-0.15821409225463867
1700823734433000000,5.6,-0.4893030524253845,1.2809844017028809,-0.33169981837272644
1700823734443089000,5.6100888671875,-0.34636059403419495,1.720807433128357,-0.47342056035995483
1700823734453197000,5.620197021484375,-0.11667526513338089,1.9407188892364502,-0.4954117238521576
1700823734463152000,5.630152099609375,0.028099801391363144,1.9217820167541504,-0.2981022298336029
1700823734473004000,5.640004150390625,0.02382374368607998,1.737911581993103,-0.15271630883216858
1700823734483015000,5.650014892578125,-0.1966986060142517,1.6865988969802856,-0.35552358627319336
1700823734492996000,5.65999609375,-0.30482175946235657,1.8154915571212769,-0.6792821288108826
1700823734503255000,5.670255126953125,-0.1618792861700058,1.7446311712265015,-0.8503243923187256
1700823734513160000,5.680159912109375,0.21807889640331268,1.568701982498169,-0.8839219808578491
1700823734523006000,5.690005859375,0.3952298164367676,1.5564846992492676,-0.8613200187683105
1700823734533037000,5.700037109375,0.6676757335662842,1.2589932680130005,-0.6713408827781677
1700823734542971000,5.709970947265625,0.9651671051979065,0.8869763612747192,-0.5021312236785889
1700823734553153000,5.720153076171875,1.0280861854553223,0.6646214127540588,-0.47219884395599365
1700823734563235000,5.730235107421875,0.8930850028991699,0.18387043476104736,-0.45814892649650574
1700823734573246000,5.740245849609375,1.0946705341339111,-1.0793988704681396,-0.3640756905078888
1700823734582944000,5.749944091796875,1.644449234008789,-1.7715091705322266,-0.17104226350784302
1700823734593206000,5.7602060546875,2.147191286087036,-1.5668693780899048,0.05314527451992035
1700823734603914000,5.7709140625,2.3267858028411865,-1.0958921909332275,0.19792033731937408
1700823734613203000,5.780202880859375,2.177123785018921,-0.7898487448692322,0.14233160018920898
1700823734623050000,5.790050048828125,1.8020524978637695,-0.7904596328735352,-0.08368854224681854
1700823734633139000,5.800138916015625,1.3170254230499268,-0.8998045325279236,-0.23640485107898712
1700823734643165000,5.8101650390625,0.6542366743087769,-0.5589417219161987,-0.042760565876960754
1700823734653167000,5.8201669921875,-0.03481931984424591,0.05619960278272629,0.24984388053417206
1700823734663273000,5.83027294921875,-0.37140607833862305,0.45142942667007446,0.5088507533073425
1700823734673192000,5.84019189453125,-0.40072759985923767,0.8002334833145142,0.8161159753799438
1700823734683157000,5.850156982421875,-0.3732386529445648,0.7312057018280029,1.1270463466644287
1700823734693165000,5.8601650390625,-0.45204028487205505,0.16371189057826996,1.4343116283416748
1700823734703156000,5.870156005859375,-0.7489207983016968,-0.5632177591323853,1.7434093952178955
1700823734713259000,5.880259033203125,-0.988990843296051,-0.6731734871864319,2.0280725955963135
1700823734723250000,5.89025,-0.8155050873756409,-0.3084869384765625,2.1508564949035645
1700823734733157000,5.9001572265625,-0.3885102868080139,0.039706241339445114,1.9627100229263306
1700823734743153000,5.91015283203125,0.04398229718208313,0.40683624148368835,1.5570955276489258
1700823734753174000,5.920174072265625,0.28955012559890747,0.797789990901947,1.0690141916275024
1700823734763216000,5.9302158203125,0.2785545587539673,0.9517280459403992,0.5693264007568359
1700823734773012000,5.940011962890625,0.31093040108680725,0.6688974499702454,0.10018189996480942
1700823734783001000,5.9500009765625,0.2919935882091522,0.11667526513338089,-0.27488934993743896
1700823734793079000,5.9600791015625,0.13072516024112701,-0.3182607889175415,-0.48380526900291443
1700823734802943000,5.96994287109375,0.001832595793530345,-0.42088615894317627,-0.5400048494338989
1700823734813050000,5.980050048828125,0.015271631069481373,-0.47769662737846375,-0.475253164768219
1700823734822942000,5.98994189453125,0.08979719132184982,-0.4447098970413208,-0.3286454975605011
1700823734832946000,5.99994580078125,0.1667662113904953,-0.0910189226269722,0.0024434609804302454
1700823734842925000,6.009925048828125,0.14538592100143433,0.08979719132184982,0.11484266817569733
1700823734853125000,6.020125,0.10934487730264664,0.18875735998153687,0.17531833052635193
1700823734863123000,6.030123046875,0.09529497474431992,0.1918116807937622,0.16249015927314758
1700823734873128000,6.0401279296875,0.10567969083786011,0.08735372871160507,0.09162978827953339
1700823734883093000,6.050093017578125,0.13011430203914642,-0.03176499158143997,0.0006108652451075613
1700823734893048000,6.060048095703125,0.15332718193531036,-0.1160643994808197,-0.07330382615327835
1700823734903113000,6.070113037109375,0.16920967400074005,-0.14477506279945374,-0.10384709388017654
1700823734913132000,6.080132080078125,0.16432274878025055,-0.1417207419872284,-0.08796459436416626
1700823734922978000,6.08997802734375,0.12889257073402405,-0.10934487730264664,-0.018325956538319588
1700823734933010000,6.100010009765625,0.07269296050071716,-0.03726277872920036,0.1007927656173706
1700823734943175000,6.1101748046875,0.012828170321881771,0.051312681287527084,0.22968533635139465
1700823734953036000,6.1200361328125,-0.024434609338641167,0.1160643994808197,0.3139847218990326
1700823734962947000,6.129947021484375,-0.019547687843441963,0.1362229436635971,0.3439171314239502
1700823734973617000,6.140616943359375,0.01160643994808197,0.10873401165008545,0.3225368559360504
1700823734983044000,6.150044189453125,0.03298672288656235,0.042760565876960754,0.2638937830924988
1700823734993198000,6.160197998046875,0.031154127791523933,-0.036041051149368286,0.19975294172763824
1700823735003001000,6.1700009765625,0.02076941914856434,-0.11728613078594208,0.1466076523065567
1700823735013121000,6.18012109375,0.03481931984424591,-0.18631389737129211,0.1258382350206375
1700823735023622000,6.190621826171875,0.16737708449363708,-0.24617868661880493,0.18814650177955627
1700823735033037000,6.200037109375,0.38117989897727966,-0.27550023794174194,0.24068090319633484
1700823735043220000,6.210219970703125,0.5363397002220154,-0.31459560990333557,0.16310101747512817
1700823735053207000,6.22020703125,0.7104362845420837,-0.35063666105270386,0.11362093687057495
1700823735063243000,6.230242919921875,0.8509352803230286,-0.3738495409488678,0.20036379992961884
1700823735072995000,6.2399951171875,0.826500654220581,-0.2932153046131134,0.34147366881370544
1700823735083030000,6.250030029296875,0.6133087277412415,-0.060475658625364304,0.2791654169559479
1700823735093139000,6.260138916015625,0.2370157092809677,-0.04214970022439957,0.19364428520202637
1700823735102954000,6.2699541015625,-0.21563543379306793,-0.07208210229873657,0.16982053220272064
1700823735113071000,6.280071044921875,-0.6346889734268188,0.0555887371301651,0.09040805697441101
1700823735123107000,6.290107177734375,-1.0726794004440308,0.23518311977386475,-0.17409659922122955
1700823735133075000,6.300074951171875,-1.8154915571212769,0.28649580478668213,-0.5803219676017761
1700823735143155000,6.310155029296875,-3.1471776962280273,0.14966198801994324,-1.3658946752548218
1700823735153197000,6.320197021484375,-3.0836477279663086,-0.00427605677396059,-1.2889256477355957
1700823735163139000,6.33013916015625,-2.448347806930542,-0.04398229718208313,-0.9566149711608887
1700823735173141000,6.34014111328125,-1.5436564683914185,-0.09285151958465576,-0.46670106053352356
1700823735182951000,6.349950927734375,-0.7867944240570068,0.018325956538319588,-0.021991148591041565
1700823735193009000,6.3600087890625,-0.42088615894317627,0.17592918872833252,0.15760323405265808
1700823735203247000,6.3702470703125,-0.34025195240974426,0.18020524084568024,0.036041051149368286
1700823735213325000,6.380324951171875,-0.33658674359321594,0.2278527319431305,-0.20952677726745605
1700823735223323000,6.390322998046875,-0.4917465150356293,0.394618958234787,-0.4789183437824249
1700823735233135000,6.400135009765625,-0.7770205736160278,0.48869219422340393,-0.6957755088806152
1700823735243249000,6.410248779296875,-1.0183123350143433,0.5485569834709167,-0.7171558141708374
1700823735253204000,6.420203857421875,-1.0396926403045654,0.3219259977340698,-0.44837507605552673
1700823735263235000,6.430235107421875,-0.8338310718536377,0.09224065393209457,0.14416420459747314
1700823735273113000,6.440113037109375,-0.5937610268592834,0.2119702398777008,0.8197811841964722
1700823735283088000,6.450087890625,-0.3689626157283783,0.2382374405860901,1.2247848510742188
1700823735293161000,6.460160888671875,-0.1973094791173935,0.1062905490398407,1.312138557434082
1700823735303197000,6.470197021484375,-0.16554448008537292,0.013439035043120384,1.1826350688934326
1700823735313132000,6.480132080078125,-0.18020524084568024,-0.23945917189121246,1.004873275756836
1700823735323121000,6.490120849609375,-0.14844025671482086,-0.3604104816913605,0.9040805697441101
1700823735333099000,6.50009912109375,-0.06719517707824707,-0.28588494658470154,0.8100073337554932
1700823735343230000,6.51022998046875,0.02015855349600315,-0.27061331272125244,0.6786713004112244
1700823735353106000,6.52010595703125,0.10506882518529892,-0.40256020426750183,0.5601634383201599
1700823735363182000,6.53018212890625,0.2064724564552307,-0.45753806829452515,0.6065891981124878
1700823735373281000,6.540281005859375,0.38179078698158264,-0.4550946056842804,0.8100073337554932
1700823735383187000,6.55018701171875,0.6059783101081848,-0.5229006409645081,1.0231993198394775
1700823735393273000,6.560273193359375,0.7342600226402283,-0.5864306092262268,1.0965031385421753
1700823735403131000,6.570130859375,0.6279694437980652,-0.6200281977653503,0.9810495972633362
1700823735413219000,6.580218994140625,0.2070833146572113,-0.5632177591323853,0.646295428276062
1700823735423041000,6.590041015625,-0.2070833146572113,-0.5106833577156067,0.21991148591041565
1700823735433105000,6.60010498046875,-0.2681698501110077,-0.49235737323760986,-0.11545353382825851
1700823735443266000,6.61026611328125,0.1765400618314743,-0.6389650702476501,-0.636521577835083
1700823735452936000,6.61993603515625,0.47830748558044434,-0.7544185519218445,-0.9480628371238708
1700823735463091000,6.630091064453125,0.627358615398407,-0.8655960559844971,-1.380555510520935
1700823735473074000,6.640073974609375,0.6933320760726929,-1.189354658126831,-1.5595389604568481
1700823735482983000,6.64998291015625,0.5192354321479797,-0.749531626701355,-1.3359622955322266
1700823735493036000,6.6600361328125,-0.01038470957428217,0.20402899384498596,-1.5522085428237915
1700823735503000000,6.67,-0.1966986060142517,-0.15271630883216858,-1.9462167024612427
1700823735513060000,6.68006005859375,-0.313373863697052,-0.7648032903671265,-2.216830015182495
1700823735523045000,6.690045166015625,-0.484416127204895,-0.7519751191139221,-2.3744332790374756
1700823735533049000,6.700049072265625,-0.6163630485534668,-0.5705481171607971,-2.2821924686431885
1700823735543611000,6.71061083984375,-0.6133087277412415,-0.3891211748123169,-1.7568484544754028
1700823735553110000,6.720110107421875,-0.7055493593215942,0.21135938167572021,-1.0696250200271606
1700823735562997000,6.7299970703125,-0.9181304574012756,0.778853178024292,-0.4129449129104614
1700823735573005000,6.740005126953125,-0.9676105380058289,0.7379252314567566,0.13316862285137177
1700823735583110000,6.75010986328125,-0.8533787727355957,0.5668829679489136,0.37262779474258423
1700823735593125000,6.760125,-0.6688974499702454,0.5296201705932617,0.3933972120285034
1700823735603070000,6.770070068359375,-0.503963828086853,0.485027015209198,0.34086281061172485
1700823735613071000,6.780071044921875,-0.4691445231437683,0.4386012554168701,0.2583959996700287
1700823735623016000,6.790015869140625,-0.5864306092262268,0.4703662395477295,0.19975294172763824
1700823735633082000,6.80008203125,-0.7324274182319641,0.5143485069274902,0.2681698501110077
1700823735643143000,6.810142822265625,-0.6963863968849182,0.7434229850769043,0.4648684561252594
1700823735653131000,6.820131103515625,-0.5125159621238708,0.8503243923187256,0.645684540271759
1700823735662985000,6.82998486328125,-0.242513507604599,0.6762278079986572,0.7367035150527954
1700823735673050000,6.840050048828125,0.05742133408784866,0.41599923372268677,0.6969972252845764
1700823735683102000,6.85010205078125,0.2926044464111328,0.08185594528913498,0.5375614166259766
1700823735693181000,6.860180908203125,0.4593706727027893,-0.08674286305904388,0.41172316670417786
1700823735703122000,6.870121826171875,0.5351179838180542,-0.09896016865968704,0.33597588539123535
1700823735713140000,6.880139892578125,0.45631635189056396,-0.09529497474431992,0.29138273000717163
1700823735723026000,6.89002587890625,0.2565633952617645,-0.06230825558304787,0.2620611786842346
1700823735733013000,6.900012939453125,0.0757472887635231,0.01466076634824276,0.3084869384765625
1700823735743327000,6.910326904296875,-0.027488935738801956,0.08796459436416626,0.34147366881370544
1700823735753113000,6.920113037109375,0.12400564551353455,0.056810468435287476,0.36224308609962463
1700823735763099000,6.930098876953125,0.24068090319633484,0.06536258012056351,0.33597588539123535
1700823735773054000,6.940053955078125,0.294437050819397,-0.01710422709584236,0.1869247704744339
1700823735783025000,6.95002490234375,0.303600013256073,-0.03481931984424591,0.1869247704744339
1700823735793126000,6.9601259765625,0.3072652220726013,-0.01771509274840355,-0.21013765037059784
1700823735803330000,6.970330078125,0.41111230850219727,-0.009162978269159794,-0.3683517575263977
1700823735812977000,6.979976806640625,0.6627888083457947,0.14294247329235077,-0.3982841372489929
1700823735823054000,6.99005419921875,0.9028588533401489,0.17959438264369965,-0.4294382631778717
1700823735833026000,7.000026123046875,1.06657075881958,0.10201449692249298,-0.41661009192466736
1700823735843047000,7.010046875,1.2082914113998413,0.1014036312699318,-0.21135938167572021
1700823735853101000,7.02010107421875,1.3475687503814697,0.323147714138031,0.18997909128665924
1700823735863037000,7.030036865234375,1.3616186380386353,0.5681046843528748,0.5387831330299377
1700823735873015000,7.04001513671875,1.2302825450897217,0.5821545720100403,0.66584312915802
1700823735883051000,7.050051025390625,1.053742527961731,0.35185837745666504,0.7709119319915771
1700823735893101000,7.06010107421875,0.8594874143600464,0.294437050819397,1.0366383790969849
1700823735903086000,7.070086181640625,0.5485569834709167,0.6243042945861816,1.3732250928878784
1700823735913022000,7.08002197265625,0.2583959996700287,0.6572909951210022,1.3756685256958008
1700823735923102000,7.09010205078125,0.3933972120285034,0.4795292317867279,1.0335839986801147
1700823735933115000,7.100114990234375,0.5338962078094482,0.1411098688840866,0.32986724376678467
1700823735943056000,7.110055908203125,0.5516113042831421,-0.3701843321323395,-0.21624629199504852
1700823735953092000,7.120092041015625,0.46242499351501465,-0.484416127204895,-0.41661009192466736
1700823735963037000,7.130036865234375,0.3494149148464203,-0.39095374941825867,-0.2828305959701538
1700823735973129000,7.14012890625,0.36651915311813354,-0.13927727937698364,-0.08735372871160507
1700823735983358000,7.15035791015625,0.48380526900291443,-0.17043140530586243,0.015271631069481373
1700823735993378000,7.1603779296875,0.5192354321479797,-0.2632829248905182,0.01710422709584236
1700823736003177000,7.170177001953125,0.4489859640598297,-0.3280346393585205,-0.0659734457731247
1700823736013111000,7.180111083984375,0.2938261926174164,-0.3854559659957886,-0.10995574295520782
1700823736023079000,7.190078857421875,0.12767083942890167,-0.38667771220207214,-0.0555887371301651
1700823736033107000,7.20010693359375,0.012828170321881771,-0.35246923565864563,0.06902777403593063
1700823736043106000,7.21010595703125,-0.02871066704392433,-0.2828305959701538,0.17287486791610718
1700823736053191000,7.22019091796875,-0.003054326167330146,-0.2620611786842346,0.17531833052635193
1700823736063132000,7.2301318359375,-0.005497787147760391,-0.24434609711170197,0.12217304855585098
1700823736073214000,7.2402138671875,-0.05314527451992035,-0.1264491081237793,0.09346238523721695
1700823736083053000,7.250052978515625,-0.04886921867728233,-0.08674286305904388,0.10567969083786011
1700823736093102000,7.26010205078125,-0.05803219974040985,-0.09224065393209457,0.08979719132184982
1700823736103092000,7.270092041015625,-0.10690141469240189,-0.14477506279945374,0.07757988572120667
1700823736113067000,7.28006689453125,-0.42577308416366577,-0.11178833991289139,0.2681698501110077
1700823736123199000,7.290198974609375,-0.3439171314239502,0.031154127791523933,0.49235737323760986
1700823736133193000,7.30019287109375,-0.05192354694008827,-0.1563815027475357,0.3139847218990326
1700823736143195000,7.31019482421875,0.13988813757896423,-0.3646865487098694,-0.04153883829712868
1700823736153211000,7.3202109375,0.07269296050071716,-0.423329621553421,-0.152105450630188
1700823736163329000,7.3303291015625,-0.02382374368607998,-0.19303341209888458,0.13072516024112701
1700823736173780000,7.340780029296875,-0.007941247895359993,-0.06963863968849182,0.39217549562454224
1700823736183108000,7.350108154296875,-0.01466076634824276,-0.12889257073402405,0.34574973583221436
1700823736193036000,7.3600361328125,-0.03420845419168472,-0.3488040566444397,-0.10445795953273773
1700823736203316000,7.37031591796875,-0.1111774742603302,-0.5290092825889587,-0.6860016584396362
1700823736213234000,7.38023388671875,-0.182648703455925,-0.5461135506629944,-1.1496484279632568
1700823736223185000,7.390184814453125,-0.10018189996480942,-0.45875978469848633,-1.2180652618408203
1700823736233166000,7.400166015625,0.056810468435287476,-0.19792033731937408,-0.8087855577468872
1700823736243274000,7.41027392578125,0.1661553531885147,0.20097467303276062,-0.32681289315223694
1700823736253376000,7.4203759765625,0.31520646810531616,0.32009339332580566,0.04581489413976669
1700823736263223000,7.43022314453125,0.394008070230484,0.36102136969566345,0.37262779474258423
1700823736273221000,7.44022119140625,0.4746423065662384,0.5021312236785889,0.5674937963485718
1700823736283186000,7.45018603515625,0.5174028873443604,0.4001167416572571,0.6609562039375305
1700823736293199000,7.46019921875,0.3744603991508484,0.34574973583221436,0.6108652353286743
1700823736303191000,7.47019091796875,0.12400564551353455,0.27000242471694946,0.4288274049758911
1700823736313141000,7.48014111328125,-0.09346238523721695,0.16004669666290283,0.32498031854629517
1700823736323626000,7.4906259765625,-0.11789698898792267,0.04459316283464432,0.20097467303276062
1700823736333124000,7.5001240234375,0.036651913076639175,-0.1466076523065567,0.0354301854968071
1700823736343096000,7.510095947265625,0.1411098688840866,-0.28527405858039856,-0.054367005825042725
1700823736353353000,7.52035302734375,0.09285151958465576,-0.23457226157188416,-0.00366519158706069
1700823736363811000,7.53081103515625,0.02687807008624077,-0.09957103431224823,0.09529497474431992
1700823736373209000,7.540208984375,0.05925392732024193,-0.05742133408784866,-0.14416420459747314
1700823736383119000,7.550119140625,0.08674286305904388,-0.22907446324825287,-0.2565633952617645
1700823736393157000,7.5601572265625,0.07635815441608429,-0.27611109614372253,-0.17104226350784302
1700823736403057000,7.570056884765625,-0.00366519158706069,-0.17287486791610718,0.0659734457731247
1700823736413060000,7.58006005859375,-0.05619960278272629,-0.005497787147760391,0.2669481039047241
1700823736423095000,7.590094970703125,0.007941247895359993,0.09224065393209457,0.33597588539123535
1700823736433137000,7.600136962890625,0.00366519158706069,0.11728613078594208,0.23090706765651703
1700823736443081000,7.6100810546875,-0.060475658625364304,0.15271630883216858,0.16982053220272064
1700823736453093000,7.620093017578125,-0.16493362188339233,0.20952677726745605,0.33108896017074585
1700823736463375000,7.630375,-0.3500257730484009,0.26145032048225403,0.7055493593215942
1700823736473193000,7.64019287109375,-0.5607742667198181,0.22418753802776337,0.8484918475151062
1700823736483058000,7.650057861328125,-0.921795666217804,-0.042760565876960754,0.6359107494354248
1700823736493206000,7.6602060546875,-1.2608258724212646,-0.32131510972976685,0.294437050819397
1700823736503172000,7.670172119140625,-1.3347405195236206,-0.3995058834552765,0.07696902006864548
1700823736512956000,7.679955810546875,-1.0085384845733643,-0.12400564551353455,0.21380282938480377
1700823736523225000,7.69022509765625,-0.5955936312675476,0.3066543638706207,0.6218608021736145
1700823736533203000,7.700202880859375,-0.5082398653030396,0.5302310585975647,0.8142833709716797
1700823736543219000,7.710218994140625,-0.6670648455619812,0.4043927788734436,0.7006624341011047
1700823736553214000,7.7202138671875,-0.9645562171936035,0.3732386529445648,0.5448917746543884
1700823736563168000,7.73016796875,-1.3848315477371216,0.4245513379573822,0.3738495409488678
1700823736573013000,7.740012939453125,-1.8478673696517944,0.26939156651496887,0.14538592100143433
1700823736583000000,7.75,-2.1368067264556885,0.1618792861700058,-0.01160643994808197
1700823736592976000,7.759975830078125,-2.122145891189575,0.25534167885780334,-0.024434609338641167
1700823736602958000,7.7699580078125,-1.9468275308609009,0.5076290369033813,0.1508837193250656
1700823736612962000,7.779962158203125,-2.367713689804077,0.7745771408081055,-0.036651913076639175
1700823736622988000,7.789988037109375,-2.6981918811798096,0.4960225820541382,-0.048258353024721146
1700823736632994000,7.799994140625,-2.585181713104248,1.3347405195236206,0.6212499737739563
1700823736643009000,7.810009033203125,-2.465452194213867,1.796554684638977,1.2486085891723633
1700823736653087000,7.8200869140625,-2.6535985469818115,1.7140878438949585,1.4312572479248047
1700823736662977000,7.82997705078125,-2.792264938354492,1.5344934463500977,1.289536476135254
1700823736673071000,7.840071044921875,-2.3719897270202637,1.4282029867172241,1.0653489828109741
1700823736683116000,7.850115966796875,-0.455705463886261,1.2687671184539795,0.8600982427597046
1700823736693096000,7.860095947265625,0.4294382631778717,0.18814650177955627,0.10873401165008545
1700823736703121000,7.870120849609375,1.0995573997497559,-0.29138273000717163,-0.29565876722335815
1700823736712981000,7.87998095703125,1.4697418212890625,-0.6249151229858398,-0.5656611919403076
1700823736723033000,7.890033203125,1.5986343622207642,-0.7275404930114746,-0.6218608021736145
1700823736732974000,7.89997412109375,1.5051720142364502,-0.66584312915802,-0.5216789245605469
1700823736742966000,7.909966064453125,1.2034045457839966,-0.475253164768219,-0.3396410644054413
1700823736753146000,7.92014599609375,0.8961393237113953,-0.26511552929878235,-0.11362093687057495
1700823736762958000,7.9299580078125,0.720820963382721,-0.15027284622192383,0.11667526513338089
1700823736773249000,7.9402490234375,0.6707300543785095,-0.14905111491680145,0.27122417092323303
1700823736783008000,7.950008056640625,0.59803706407547,-0.3066543638706207,0.21563543379306793
1700823736793250000,7.96025,0.37140607833862305,-0.5699372887611389,-0.10323622822761536
1700823736803140000,7.97014013671875,0.036651913076639175,-0.7574729323387146,-0.5699372887611389
1700823736813190000,7.98018994140625,-0.2064724564552307,-0.7837401032447815,-0.9914342761039734
1700823736823267000,7.99026708984375,-0.18509216606616974,-0.6701191663742065,-1.2027937173843384
1700823736833233000,8.00023291015625,-0.012217304669320583,-0.5094616413116455,-1.205847978591919
1700823736843275000,8.01027490234375,0.1466076523065567,-0.28588494658470154,-1.0415252447128296
1700823736852988000,8.01998779296875,0.19364428520202637,-0.09285151958465576,-0.789237916469574
1700823736862962000,8.0299619140625,0.09224065393209457,-0.018325956538319588,-0.5736024379730225
1700823736873179000,8.040178955078124,-0.15760323405265808,-0.16982053220272064,-0.5051855444908142
1700823736882934000,8.04993408203125,-0.5174028873443604,-0.3292563557624817,-0.5510004758834839
1700823736892912000,8.059912109375,-0.9089674949645996,-0.3439171314239502,-0.6872233748435974
1700823736902937000,8.06993701171875,-1.150259256362915,-0.25595253705978394,-0.8063421249389648
1700823736912993000,8.079992919921875,-1.1227703094482422,-0.10201449692249298,-0.7373143434524536
1700823736923045000,8.090045166015624,-0.8912523984909058,0.2724458873271942,-0.49785518646240234
1700823736933188000,8.10018798828125,-0.6682865619659424,0.4153883755207062,-0.28466320037841797
1700823736943120000,8.110119873046875,-0.5296201705932617,0.18387043476104736,-0.17348572611808777
1700823736953245000,8.120244873046875,-0.4288274049758911,-0.04214970022439957,-0.11972958594560623
1700823736962936000,8.12993603515625,-0.38240164518356323,-0.15454891324043274,-0.15577064454555511
1700823736973125000,8.140125,-0.36529740691185,-0.3323107063770294,-0.28038713335990906
1700823736983414000,8.1504140625,-0.3194825351238251,-0.3793473243713379,-0.3787364661693573
1700823736993097000,8.160096923828124,-0.2626720666885376,-0.3335324227809906,-0.4648684561252594
1700823737003092000,8.170092041015625,-0.13744467496871948,-0.38240164518356323,-0.5943718552589417
1700823737013092000,8.180092041015625,-0.242513507604599,-0.3805690407752991,-0.5314527750015259
1700823737022960000,8.189960205078124,-0.5076290369033813,-0.2767219543457031,-0.40194934606552124
1700823737033082000,8.20008203125,-0.8057312369346619,-0.17348572611808777,-0.30115658044815063
1700823737043206000,8.210205810546874,-0.9773843884468079,-0.11972958594560623,-0.22602014243602753
1700823737053073000,8.220072998046875,-0.8802568316459656,0.00427605677396059,-0.06902777403593063
1700823737062979000,8.22997900390625,-0.5406157374382019,0.4294382631778717,0.16493362188339233
1700823737073074000,8.240073974609375,-0.14966198801994324,0.8607091307640076,0.34025195240974426
1700823737083099000,8.250098876953125,0.1411098688840866,0.9083566069602966,0.3488040566444397
1700823737093108000,8.26010791015625,0.25595253705978394,0.5644394755363464,0.20463985204696655
1700823737103013000,8.27001318359375,0.18325957655906677,0.12889257073402405,0.025656340643763542
1700823737112980000,8.27997998046875,-0.05314527451992035,-0.1612684279680252,-0.11239920556545258
1700823737122956000,8.2899560546875,-0.384845107793808,-0.33292156457901,-0.20097467303276062
1700823737132902000,8.29990185546875,-0.7000515460968018,-0.5558874011039734,-0.3274237811565399
1700823737143148000,8.31014794921875,-0.9382890462875366,-0.7611380815505981,-0.4489859640598297
1700823737152914000,8.319913818359375,-1.0561859607696533,-0.788627028465271,-0.5021312236785889
1700823737162993000,8.329992919921875,-1.026253581047058,-0.6951646208763123,-0.49357911944389343
1700823737172903000,8.33990283203125,-0.9645562171936035,-0.7061602473258972,-0.4544837474822998
1700823737182981000,8.349981201171875,-0.9541715383529663,-0.6860016584396362,-0.4404338300228119
1700823737192946000,8.35994580078125,-0.988990843296051,-0.7055493593215942,-0.2370157092809677
1700823737202884000,8.369884033203125,-1.0653489828109741,-0.35063666105270386,0.08124507963657379
1700823737213082000,8.38008203125,-1.0965031385421753,-0.039706241339445114,0.39645153284072876
1700823737222948000,8.389947998046875,-1.1557570695877075,0.060475658625364304,0.4715879559516907
1700823737232975000,8.39997509765625,-1.2003501653671265,-0.25045475363731384,0.26083946228027344
1700823737242897000,8.40989697265625,-1.2357803583145142,-0.5674937963485718,-0.19975294172763824
1700823737252877000,8.419876953125,-1.3176363706588745,-0.7360926270484924,-0.5711590051651001
1700823737262927000,8.429927001953125,-1.3799445629119873,-0.7568620443344116,-0.7837401032447815
1700823737272893000,8.439892822265625,-1.3170254230499268,-0.6982190012931824,-0.769079327583313
1700823737283416000,8.450416015625,-1.228450059890747,-0.5656611919403076,-0.5931501388549805
1700823737293051000,8.46005078125,-1.2027937173843384,-0.38728857040405273,-0.3646865487098694
1700823737302948000,8.469947998046875,-1.1453723907470703,-0.30543261766433716,-0.12828169763088226
1700823737312942000,8.479942138671875,-0.9639453291893005,-0.35124751925468445,0.19914206862449646
1700823737322945000,8.489945068359376,-0.9199630618095398,-0.3952298164367676,0.21563543379306793
1700823737332895000,8.49989501953125,-0.9462302923202515,-0.3995058834552765,0.13500121235847473
1700823737342966000,8.509966064453126,-0.9633345007896423,-0.21074850857257843,0.08979719132184982
1700823737353037000,8.520037109375,-0.9645562171936035,0.02321287989616394,-0.01710422709584236
1700823737363250000,8.53025,-0.8979719281196594,0.34025195240974426,-0.07513642311096191
1700823737372992000,8.539991943359375,-0.720820963382721,0.4141666293144226,0.08185594528913498
1700823737382929000,8.549928955078125,-0.5564982295036316,0.21563543379306793,0.20525072515010834
1700823737392965000,8.559965087890625,-0.45326200127601624,0.16310101747512817,0.1563815027475357
1700823737403283000,8.570282958984375,-0.3854559659957886,0.251676470041275,0.06291911751031876
1700823737413028000,8.580028076171875,-0.252287358045578,0.15943582355976105,0.04214970022439957
1700823737422917000,8.589917236328125,-0.11667526513338089,0.28588494658470154,-0.17776179313659668
1700823737432953000,8.599953125,-0.05803219974040985,0.4996877610683441,-0.33658674359321594
1700823737442922000,8.609921875,-0.08429940044879913,0.5821545720100403,-0.513737678527832
1700823737452920000,8.619920166015625,-0.1014036312699318,0.6597344875335693,-0.6921103000640869
1700823737462937000,8.62993701171875,0.02321287989616394,0.8057312369346619,-0.8600982427597046
1700823737472904000,8.639904052734375,0.32620203495025635,1.0500773191452026,-1.0109820365905762
1700823737482978000,8.64997802734375,0.7006624341011047,1.299310326576233,-1.0934487581253052
1700823737492935000,8.659934814453125,0.9834930300712585,1.521665334701538,-1.19912850856781
1700823737502932000,8.669931884765624,1.102611780166626,1.6273449659347534,-1.2614367008209229
1700823737512971000,8.679970947265625,1.166752576828003,1.7330247163772583,-1.3151928186416626
1700823737523090000,8.69008984375,1.341460108757019,1.5638149976730347,-1.3451253175735474
1700823737532927000,8.699927001953125,1.5968017578125,0.9065240025520325,-1.2247848510742188
1700823737542931000,8.709930908203125,1.718363881111145,0.8246681094169617,-1.1020009517669678
1700823737553008000,8.720008056640625,1.7122552394866943,0.8765916228294373,-1.0225883722305298
1700823737562913000,8.7299130859375,1.6352862119674683,1.2486085891723633,-1.0781772136688232
1700823737573119000,8.740118896484375,1.5564846992492676,1.613295078277588,-1.244943380355835
1700823737582965000,8.749965087890626,1.42637038230896,1.0207557678222656,-1.5204435586929321
1700823737592945000,8.75994482421875,1.3225232362747192,0.5613851547241211,-1.5241087675094604
1700823737602996000,8.769995849609375,1.3103059530258179,0.3378084897994995,-1.2131783962249756
1700823737612934000,8.779933837890624,1.4013248682022095,-0.12339477986097336,-0.6725626587867737
1700823737623096000,8.790095947265625,1.2027937173843384,-0.5461135506629944,-0.23457226157188416
1700823737633017000,8.80001708984375,1.1942415237426758,-0.4453207552433014,-0.13255776464939117
1700823737642928000,8.80992822265625,1.2541064023971558,-0.18325957655906677,-0.08552113175392151
1700823737652940000,8.81993994140625,1.3096951246261597,0.09651670604944229,-0.10995574295520782
1700823737663034000,8.8300341796875,1.2999212741851807,0.24984388053417206,-0.35613444447517395
1700823737672965000,8.839965087890626,1.2663236856460571,0.0659734457731247,-0.5791002511978149
1700823737682966000,8.849966064453126,1.2669345140457153,-0.394618958234787,-0.5229006409645081
1700823737692950000,8.859949951171876,1.217454433441162,-0.9382890462875366,-0.5076290369033813
1700823737703008000,8.870008056640625,1.0867292881011963,-1.5399912595748901,-0.45875978469848633
1700823737712976000,8.879975830078125,1.014647126197815,-2.1624629497528076,-0.17959438264369965
1700823737722990000,8.889989990234374,1.0134254693984985,-2.4043655395507812,0.10690141469240189
1700823737732892000,8.899891845703126,0.9865473508834839,-2.007303237915039,0.19486601650714874
1700823737742923000,8.909923095703125,0.9627236127853394,-1.1850786209106445,0.20586158335208893
1700823737753211000,8.9202109375,1.0103710889816284,-0.5436700582504272,0.44287729263305664
1700823737762895000,8.92989501953125,1.091616153717041,-0.2571742534637451,0.9138544201850891
1700823737773180000,8.940179931640625,1.1716395616531372,-0.12339477986097336,1.3341296911239624
1700823737782880000,8.9498798828125,1.2870930433273315,-0.022602014243602753,1.6090190410614014
1700823737792931000,8.95993115234375,1.3823879957199097,0.06902777403593063,1.644449234008789
1700823737803047000,8.970046875,1.3310753107070923,0.2669481039047241,1.3603968620300293
1700823737812941000,8.979941162109375,1.1074986457824707,0.3903428912162781,0.8423831462860107
1700823737822949000,8.98994921875,0.3878994286060333,0.8918632864952087,-0.2632829248905182
1700823737833019000,9.000018798828124,-0.24617868661880493,1.2357803583145142,-1.2620476484298706
1700823737842922000,9.009921875,-0.475253164768219,0.9169087409973145,-1.4110987186431885
1700823737852901000,9.019901123046875,-0.44837507605552673,0.5290092825889587,-1.0476338863372803
1700823737862917000,9.029917236328124,-0.4288274049758911,0.12889257073402405,-0.39156460762023926
1700823737872958000,9.0399580078125,-0.5271766781806946,-0.10323622822761536,0.14355333149433136
1700823737882939000,9.04993896484375,-0.6792821288108826,-0.05803219974040985,0.18325957655906677
1700823737893039000,9.0600390625,-0.5229006409645081,-0.13377949595451355,0.26450464129447937
1700823737902987000,9.069987060546875,-0.18936823308467865,-0.25045475363731384,0.36713001132011414
1700823737912940000,9.07993994140625,0.13988813757896423,-0.42638394236564636,0.1875356286764145
1700823737923013000,9.09001318359375,0.2687807083129883,-0.36102136969566345,-0.07757988572120667
1700823737932968000,9.099968017578124,-0.36224308609962463,-0.10323622822761536,-0.07696902006864548
1700823737942933000,9.10993310546875,-0.6432411074638367,-0.09651670604944229,0.14233160018920898
1700823737952935000,9.119934814453124,-0.8295549750328064,0.0012217304902151227,0.4349360466003418
1700823737962956000,9.1299560546875,-0.9578366875648499,0.1814269721508026,0.7525860071182251
1700823737972990000,9.139989990234374,-0.9969320893287659,0.413555771112442,1.0445796251296997
1700823737982920000,9.149919921875,-0.9474520087242126,0.4911356568336487,1.2107349634170532
1700823737992927000,9.159927001953125,-0.7318165898323059,0.2968805134296417,1.1942415237426758
1700823738003091000,9.170091064453125,-0.2278527319431305,0.13011430203914642,1.0525208711624146
1700823738012905000,9.179905029296876,0.10262536257505417,0.17348572611808777,0.9089674949645996
1700823738023099000,9.190098876953124,0.007941247895359993,0.10018189996480942,0.636521577835083
1700823738032970000,9.199969970703124,-0.13744467496871948,-0.07757988572120667,0.29626965522766113
1700823738042956000,9.2099560546875,-0.15515977144241333,-0.2535090744495392,-0.012828170321881771
1700823738052976000,9.21997607421875,-0.08307767659425735,-0.34025195240974426,-0.15454891324043274
1700823738063002000,9.230002197265625,-0.04153883829712868,-0.23273965716362,-0.19120082259178162
1700823738072964000,9.239964111328124,-0.05009094998240471,0.04581489413976669,-0.192422553896904
1700823738083056000,9.25005615234375,-0.02626720629632473,0.22846360504627228,-0.08796459436416626
1700823738092925000,9.259925048828125,0.05742133408784866,0.19486601650714874,0.024434609338641167
1700823738102922000,9.269921875,0.09040805697441101,0.09957103431224823,0.05619960278272629
1700823738113120000,9.2801201171875,0.07024950534105301,0.02932153269648552,0.021991148591041565
1700823738122918000,9.28991796875,0.08429940044879913,-0.06963863968849182,-0.021991148591041565
1700823738133019000,9.300018798828125,0.08491026610136032,-0.15454891324043274,-0.045204028487205505
1700823738142900000,9.30989990234375,0.031154127791523933,-0.18814650177955627,-0.03726277872920036
1700823738152966000,9.3199658203125,-0.02932153269648552,-0.17287486791610718,0.012217304669320583
1700823738162935000,9.32993505859375,-0.056810468435287476,-0.09407325088977814,0.0757472887635231
1700823738172971000,9.339970947265625,-0.09651670604944229,-0.04214970022439957,0.10934487730264664
1700823738183000000,9.35,-0.20097467303276062,-0.015271631069481373,0.08307767659425735
1700823738192994000,9.359994140625,-0.3017674386501312,0.006719517521560192,0.003054326167330146
1700823738202957000,9.36995703125,-0.26083946228027344,0.025656340643763542,-0.051312681287527084
1700823738213007000,9.380007080078125,-0.1716531366109848,0.01771509274840355,-0.0959058403968811
1700823738223016000,9.390015869140624,-0.09162978827953339,-0.019547687843441963,-0.13255776464939117
1700823738232980000,9.39997998046875,-0.03481931984424591,-0.054367005825042725,-0.16737708449363708
1700823738242908000,9.409907958984375,-0.1014036312699318,-0.0959058403968811,-0.22907446324825287
1700823738252982000,9.41998193359375,-0.16554448008537292,-0.3481931984424591,-0.39217549562454224
1700823738263913000,9.430912841796875,-0.26145032048225403,-0.3433062732219696,-0.2974913716316223
1700823738273028000,9.440028076171876,-0.36224308609962463,-0.3585779070854187,-0.11362093687057495
1700823738283013000,9.45001318359375,-0.4306600093841553,-0.2932153046131134,0.09040805697441101
1700823738292940000,9.45993994140625,-0.5216789245605469,-0.24129177629947662,0.2687807083129883
1700823738303382000,9.470382080078124,-0.6872233748435974,-0.304210901260376,0.4288274049758911
1700823738315042000,9.4820419921875,-0.8619308471679688,-0.31642818450927734,0.5943718552589417
1700823738328349000,9.495348876953125,-1.1349875926971436,-0.21135938167572021,0.5357288122177124
1700823738342955000,9.509955078125,-1.0873401165008545,-0.24923302233219147,0.29504790902137756
1700823738352979000,9.51997900390625,-0.8289441466331482,-0.26022860407829285,0.02321287989616394
1700823738363054000,9.53005419921875,-0.4453207552433014,-0.16249015927314758,-0.3225368559360504
1700823738372977000,9.539976806640626,-0.015882495790719986,0.07941248267889023,-0.7067710757255554
1700823738382944000,9.549944091796876,0.27550023794174194,0.16310101747512817,-1.1044443845748901
1700823738392969000,9.559968994140625,0.38179078698158264,-0.04092797264456749,-1.3494013547897339
1700823738402972000,9.569971923828126,0.3738495409488678,-0.4715879559516907,-1.3683381080627441
1700823738413001000,9.5800009765625,0.403781920671463,-0.9046914577484131,-1.1105530261993408
1700823738423001000,9.5900009765625,0.46792277693748474,-1.2473868131637573,-0.7049384713172913
1700823738433020000,9.60002001953125,0.5516113042831421,-1.141707181930542,-0.4801400899887085
1700823738442401000,9.609401123046876,0.8943067193031311,-0.6572909951210022,-0.1411098688840866
1700823738454714000,9.621714111328124,0.8943067193031311,-0.6572909951210022,-0.1411098688840866
1700823738462934000,9.62993408203125,1.1270463466644287,-0.4996877610683441,0.11178833991289139
1700823738472968000,9.639968017578125,1.2522737979888916,-0.43188172578811646,0.21013765037059784
1700823738483012000,9.65001220703125,1.2009611129760742,-0.49846604466438293,0.00855211354792118
1700823738492925000,9.659925048828125,1.1691961288452148,-0.6212499737739563,-0.3738495409488678
1700823738502972000,9.669971923828125,1.36650550365448,-0.7654141783714294,-0.7770205736160278
1700823738512973000,9.67997314453125,1.5790866613388062,-0.8295549750328064,-1.1154398918151855
1700823738522968000,9.689968017578124,1.6187928915023804,-0.7061602473258972,-1.4098769426345825
1700823738532909000,9.699908935546874,1.7843374013900757,-0.665232241153717,-2.0781636238098145
1700823738542937000,9.70993701171875,1.8973474502563477,-0.252287358045578,-2.976135492324829
1700823738553086000,9.7200859375,1.9657644033432007,0.49357911944389343,-4.656014919281006
1700823738562961000,9.7299609375,2.2705860137939453,3.2149837017059326,-4.004832744598389
1700823738573069000,9.740069091796874,1.9810359477996826,0.4306600093841553,-2.6816983222961426
1700823738583042000,9.7500419921875,1.081842303276062,-1.4563027620315552,-0.9755517840385437
1700823738592929000,9.759928955078125,0.5601634383201599,-0.5375614166259766,-0.4288274049758911
1700823738603026000,9.77002587890625,0.26572638750076294,-0.152105450630188,-0.1569923609495163
1700823738612960000,9.7799599609375,-0.313373863697052,-0.9059131741523743,0.5815436840057373
1700823738623028000,9.790028076171875,-0.8258898258209229,-0.8863654732704163,0.9370672702789307
1700823738633058000,9.80005810546875,-0.7574729323387146,-0.5400048494338989,0.8924741148948669
1700823738642940000,9.80993994140625,-0.28649580478668213,-0.1411098688840866,0.4795292317867279
1700823738652951000,9.819950927734375,-0.06230825558304787,-0.006719517521560192,0.10445795953273773
1700823738662913000,9.8299130859375,-0.06780604273080826,0.06536258012056351,0.09224065393209457
1700823738672951000,9.839950927734375,-0.0006108652451075613,0.1270599663257599,0.3237585723400116
1700823738683375000,9.850375,0.006108652334660292,0.17592918872833252,0.6511823534965515
1700823738692950000,9.859949951171876,-0.09468411654233932,0.27488934993743896,0.9395107626914978
1700823738702988000,9.869988037109374,-0.25534167885780334,0.41233405470848083,1.1020009517669678
1700823738712942000,9.879942138671876,-0.4398229718208313,0.6627888083457947,1.1636983156204224
1700823738722943000,9.88994287109375,-0.6279694437980652,0.7489207983016968,1.076344609260559
1700823738732947000,9.899947021484374,-0.7910705208778381,0.513737678527832,0.8582656979560852
1700823738742949000,9.90994921875,-0.911410927772522,0.2541199326515198,0.6304129362106323
1700823738753013000,9.920012939453125,-0.9560040831565857,0.24678955972194672,0.46547931432724
1700823738762999000,9.9299990234375,-0.8662069439888,0.3176499307155609,0.2968805134296417
1700823738773063000,9.94006298828125,-0.5577199459075928,0.5766568183898926,0.13744467496871948
1700823738783030000,9.950030029296874,-0.2015855312347412,0.940732479095459,0.01710422709584236
1700823738793040000,9.960039794921874,-0.04886921867728233,1.0751228332519531,0.05192354694008827
1700823738802931000,9.969930908203125,-0.05192354694008827,0.9346238374710083,0.24678955972194672
1700823738812986000,9.979986083984375,-0.1264491081237793,0.8484918475151062,0.45814892649650574
1700823738822892000,9.98989208984375,-0.3536909818649292,0.7922922372817993,0.5858197808265686
1700823738833014000,10.000013916015625,-0.6389650702476501,0.6328563690185547,0.6841690540313721
1700823738843029000,10.010029052734374,-0.8930850028991699,0.5253441333770752,0.8521569967269897
1700823738852979000,10.01997900390625,-1.0097602605819702,0.6090326309204102,0.9291260242462158
1700823738863008000,10.030008056640625,-0.7513642311096191,0.6053674817085266,0.8460483551025391
1700823738872982000,10.03998193359375,-0.5400048494338989,0.6817256212234497,0.7171558141708374
1700823738882971000,10.049970947265624,-0.4642575979232788,0.7812966704368591,0.6487388610839844
1700823738893018000,10.06001806640625,-0.5448917746543884,0.827111542224884,0.6389650702476501
1700823738902958000,10.0699580078125,-0.5791002511978149,0.7250970602035522,0.6053674817085266
1700823738913140000,10.080139892578124,-0.5876523852348328,0.6487388610839844,0.5797111392021179
1700823738922934000,10.08993408203125,-0.6414085030555725,0.7947356700897217,0.6206390857696533
1700823738933028000,10.100028076171874,-0.6951646208763123,0.8484918475151062,0.5222898125648499
1700823738942942000,10.10994189453125,-0.8704829812049866,0.6743952035903931,0.4050036668777466
1700823738952919000,10.1199189453125,-1.0897835493087769,0.9480628371238708,0.5619960427284241
1700823738962922000,10.129921875,-1.208902359008789,1.2223412990570068,0.8576548099517822
1700823738972959000,10.139958984375,-1.2394455671310425,1.5418238639831543,1.2541064023971558
1700823738982960000,10.149960205078125,-1.13926362991333,1.9730947017669678,1.8301522731781006
1700823738993001000,10.1600009765625,-0.911410927772522,1.7861700057983398,2.073887586593628
1700823739002975000,10.16997509765625,-0.6126978397369385,0.9034696817398071,1.748907208442688
1700823739012990000,10.179989990234375,-0.15821409225463867,0.3139847218990326,1.1704177856445312
1700823739022945000,10.189945068359375,0.3433062732219696,0.27061331272125244,0.8002334833145142
1700823739032931000,10.19993115234375,0.47769662737846375,0.32498031854629517,0.6890559792518616
1700823739043031000,10.210031005859374,0.1270599663257599,0.37079519033432007,0.8057312369346619
1700823739053013000,10.220012939453126,-0.18814650177955627,0.303600013256073,0.779464066028595
1700823739062940000,10.22993994140625,-0.2321287989616394,0.3640756905078888,0.5894849896430969
1700823739072920000,10.239920166015626,-0.2119702398777008,0.5094616413116455,0.6249151229858398
1700823739082889000,10.249888916015625,-0.313373863697052,0.6261368989944458,0.9511171579360962
1700823739092989000,10.259989013671875,-0.43737950921058655,0.7348709106445312,1.3408491611480713
1700823739102936000,10.26993603515625,-0.39217549562454224,0.7617489695549011,1.444696307182312
1700823739112933000,10.27993310546875,-0.07941248267889023,0.6316346526145935,1.0922271013259888
1700823739122971000,10.289970947265624,0.384845107793808,0.4764748811721802,0.5094616413116455
1700823739132903000,10.29990283203125,0.6432411074638367,0.37140607833862305,0.20952677726745605
1700823739142984000,10.30998388671875,0.44715335965156555,-0.018325956538319588,0.0006108652451075613
1700823739152941000,10.319941162109375,0.13072516024112701,-0.2828305959701538,-0.18997909128665924
1700823739162931000,10.329930908203124,-0.11423180252313614,-0.2070833146572113,-0.22907446324825287
1700823739172937000,10.33993701171875,-0.14294247329235077,-0.05803219974040985,-0.12278391420841217
1700823739182980000,10.34997998046875,-0.027488935738801956,0.24190263450145721,0.242513507604599
1700823739192930000,10.359929931640625,-0.0959058403968811,0.33047810196876526,0.2974913716316223
1700823739202884000,10.369884033203125,-0.19058994948863983,0.3170390725135803,0.29016098380088806
1700823739212901000,10.379901123046874,-0.23884831368923187,0.2376265823841095,0.2015855312347412
1700823739222911000,10.389910888671874,-0.17959438264369965,0.1160643994808197,0.08857546001672745
1700823739232911000,10.3999111328125,-0.0959058403968811,-0.001832595793530345,0.0012217304902151227
1700823739242955000,10.409955078125,-0.12034045159816742,-0.10201449692249298,-0.04398229718208313
1700823739252944000,10.41994384765625,-0.20525072515010834,-0.182648703455925,-0.08552113175392151
1700823739262972000,10.429971923828125,-0.30054569244384766,-0.16554448008537292,-0.10323622822761536
1700823739272949000,10.439948974609376,-0.4092797040939331,-0.09712757170200348,-0.09162978827953339
1700823739282940000,10.44993994140625,-0.4899139404296875,-0.024434609338641167,-0.036041051149368286
1700823739292920000,10.459920166015625,-0.5100724697113037,0.028099801391363144,0.019547687843441963
1700823739302895000,10.46989501953125,-0.4245513379573822,0.11728613078594208,0.056810468435287476
1700823739312938000,10.47993798828125,-0.304210901260376,0.13500121235847473,0.06536258012056351
1700823739322932000,10.489931884765625,-0.23945917189121246,0.08246681094169617,0.031154127791523933
1700823739332934000,10.499933837890625,-0.24495697021484375,0.02321287989616394,-0.004886921960860491
1700823739343051000,10.510051025390625,-0.34147366881370544,0.006719517521560192,-0.00427605677396059
1700823739353063000,10.52006298828125,-0.5149593949317932,0.03298672288656235,0.0024434609804302454
1700823739362910000,10.529909912109375,-0.7110471725463867,0.06352998316287994,-0.0806342139840126
1700823739372937000,10.53993701171875,-0.7470881938934326,-0.02932153269648552,-0.21013765037059784
1700823739383224000,10.55022412109375,-0.5070181488990784,-0.11728613078594208,-0.2675589919090271
1700823739392995000,10.5599951171875,-0.11301007121801376,-0.10567969083786011,-0.2620611786842346
1700823739403113000,10.570113037109374,0.05009094998240471,-0.006108652334660292,-0.13561208546161652
1700823739412893000,10.579892822265625,-0.1111774742603302,0.0757472887635231,0.0024434609804302454
1700823739422919000,10.5899189453125,-0.17043140530586243,0.060475658625364304,0.0555887371301651
1700823739433085000,10.6000849609375,-0.10690141469240189,0.07452555745840073,0.015271631069481373
1700823739442933000,10.60993310546875,-0.004886921960860491,-0.006108652334660292,-0.07757988572120667
1700823739452911000,10.6199111328125,0.003054326167330146,-0.06658431142568588,-0.07635815441608429
1700823739462901000,10.62990087890625,-0.11484266817569733,0.05314527451992035,0.039706241339445114
1700823739472912000,10.639911865234374,-0.18631389737129211,0.17776179313659668,0.12522737681865692
1700823739482913000,10.6499130859375,-0.1618792861700058,0.22968533635139465,0.20341812074184418
1700823739492926000,10.659926025390625,0.02076941914856434,0.11056660860776901,0.29993483424186707
1700823739502959000,10.669958984375,0.03298672288656235,0.16737708449363708,0.2571742534637451
1700823739513019000,10.680018798828126,0.025045474991202354,0.22418753802776337,0.16371189057826996
1700823739522903000,10.689903076171875,-0.02015855349600315,0.13500121235847473,0.039706241339445114
1700823739532899000,10.699899169921874,-0.039706241339445114,-0.005497787147760391,-0.056810468435287476
1700823739543091000,10.710091064453126,-0.030543262138962746,-0.08246681094169617,-0.1264491081237793
1700823739553069000,10.720069091796875,-0.036651913076639175,-0.15515977144241333,-0.17348572611808777
1700823739562955000,10.729955078125,-0.039706241339445114,-0.19425514340400696,-0.18448130786418915
1700823739573088000,10.740087890625,-0.016493361443281174,-0.22296582162380219,-0.1814269721508026
1700823739582933000,10.74993310546875,-0.018325956538319588,-0.22968533635139465,-0.22540926933288574
1700823739592932000,10.75993212890625,-0.0354301854968071,-0.26511552929878235,-0.2632829248905182
1700823739602935000,10.76993505859375,-0.028099801391363144,-0.2565633952617645,-0.2816088795661926
1700823739613038000,10.7800380859375,-0.021991148591041565,-0.22846360504627228,-0.2675589919090271
1700823739622937000,10.78993701171875,-0.060475658625364304,-0.22602014243602753,-0.21807889640331268
1700823739632990000,10.799989990234375,-0.10995574295520782,-0.16310101747512817,-0.16371189057826996
1700823739642960000,10.8099599609375,-0.12522737681865692,-0.08735372871160507,-0.12217304855585098
1700823739652973000,10.81997314453125,-0.10262536257505417,-0.08674286305904388,-0.05742133408784866
1700823739662910000,10.829909912109375,-0.02687807008624077,0.19853121042251587,-0.1722639948129654
1700823739673037000,10.840037109375,0.15760323405265808,0.827722430229187,-0.50335294008255
1700823739683116000,10.850115966796874,0.15577064454555511,0.37690386176109314,-0.4715879559516907
1700823739693092000,10.860092041015625,0.07757988572120667,0.11484266817569733,-0.3445279896259308
1700823739703049000,10.870049072265624,0.1062905490398407,0.6017022728919983,-0.455705463886261
1700823739713087000,10.8800869140625,0.17348572611808777,1.2345587015151978,-0.6530149579048157
1700823739722950000,10.889949951171875,0.01038470957428217,1.5210545063018799,-0.8600982427597046
1700823739733012000,10.900011962890625,-0.4031710624694824,1.2211196422576904,-0.8582656979560852
1700823739743114000,10.910114013671874,-0.6023131608963013,0.7922922372817993,-0.6982190012931824
1700823739753034000,10.920033935546876,-0.48747047781944275,0.4043927788734436,-0.4489859640598297
1700823739763137000,10.930136962890625,-0.30970868468284607,0.08674286305904388,-0.304210901260376
1700823739773068000,10.940068115234375,-0.18814650177955627,-0.01160643994808197,-0.3378084897994995
1700823739783460000,10.950460205078125,-0.13316862285137177,0.03176499158143997,-0.4642575979232788
1700823739793122000,10.9601220703125,-0.17959438264369965,0.12400564551353455,-0.5656611919403076
1700823739803246000,10.97024609375,-0.28649580478668213,0.27000242471694946,-0.6096435189247131
1700823739813200000,10.980199951171874,-0.40683624148368835,0.2382374405860901,-0.3927863538265228
1700823739823006000,10.990005859375,-0.46242499351501465,0.03726277872920036,-0.00733038317412138
1700823739832994000,10.999994140625,-0.4697553813457489,-0.1820378452539444,0.33475416898727417
1700823739842992000,11.0099921875,-0.39217549562454224,-0.23273965716362,0.4709770977497101
1700823739852984000,11.019984130859376,-0.15271630883216858,-0.04214970022439957,0.3530801236629486
1700823739863004000,11.03000390625,0.036041051149368286,0.2779437005519867,0.025656340643763542
1700823739872941000,11.039941162109375,0.03481931984424591,0.5424483418464661,-0.27488934993743896
1700823739882937000,11.04993701171875,-0.0403171069920063,0.48380526900291443,-0.29565876722335815
1700823739893033000,11.060032958984374,-0.11667526513338089,0.08674286305904388,0.005497787147760391
1700823739903041000,11.070041015625,-0.09468411654233932,-0.3885102868080139,0.4538728892803192
1700823739912892000,11.079891845703125,-0.02871066704392433,-0.827722430229187,0.8857545852661133
1700823739923070000,11.090070068359376,-0.02932153269648552,-1.171028733253479,1.1728612184524536
1700823739933034000,11.100033935546875,-0.06108652427792549,-1.301142930984497,1.2962560653686523
1700823739943021000,11.11002099609375,-0.08002334833145142,-1.36650550365448,1.3964380025863647
1700823739952994000,11.119994140625,-0.06841690838336945,-1.5173892974853516,1.4764612913131714
1700823739963110000,11.13010986328125,-0.033597588539123535,-1.7153096199035645,1.4819591045379639
1700823739973072000,11.14007177734375,0.1062905490398407,-1.7959438562393188,1.3445143699645996
1700823739983014000,11.150013916015626,0.08246681094169617,-1.6126842498779297,1.0115928649902344
1700823739993157000,11.1601572265625,-0.20463985204696655,-1.4611896276474,0.7061602473258972
1700823740003173000,11.170173095703126,-0.5632177591323853,-1.4874569177627563,0.7312057018280029
1700823740013143000,11.18014306640625,-0.8741481900215149,-1.4190399646759033,1.0433578491210938
1700823740022958000,11.1899580078125,-1.0586295127868652,-0.9419541954994202,1.380555510520935
1700823740032976000,11.199975830078126,-1.0598511695861816,-0.16798794269561768,1.615127682685852
1700823740043025000,11.21002490234375,-0.911410927772522,0.49785518646240234,1.7263051271438599
1700823740053163000,11.2201630859375,-0.7733554244041443,0.817948579788208,1.6811012029647827
1700823740062962000,11.2299619140625,-0.7446447610855103,0.7318165898323059,1.5180001258850098
1700823740072935000,11.239934814453125,-0.7764097452163696,0.38179078698158264,1.3738359212875366
1700823740082954000,11.2499541015625,-0.7715228199958801,0.15515977144241333,1.2797627449035645
1700823740093010000,11.260010009765624,-0.7293730974197388,0.14844025671482086,1.1178834438323975
1700823740103075000,11.270074951171875,-0.7586946487426758,0.03726277872920036,0.8680394887924194
1700823740112941000,11.279941162109376,-0.7617489695549011,-0.42149701714515686,0.5754350423812866
1700823740123035000,11.290034912109375,-0.7238753437995911,-0.1918116807937622,0.6108652353286743
1700823740133052000,11.300052001953125,-0.6481280326843262,0.06963863968849182,0.6841690540313721
1700823740143099000,11.310098876953125,-0.6065891981124878,0.06414084881544113,0.6120869517326355
1700823740153128000,11.3201279296875,-0.5943718552589417,-0.2528982162475586,0.42271876335144043
1700823740163044000,11.330044189453124,-0.43737950921058655,-0.5693264007568359,0.2675589919090271
1700823740172947000,11.339947021484376,-0.19058994948863983,-0.5723807215690613,0.19303341209888458
1700823740183214000,11.350214111328125,0.015271631069481373,-0.3891211748123169,0.13927727937698364
1700823740193135000,11.360135009765624,0.07880161702632904,-0.23884831368923187,0.08857546001672745
1700823740203147000,11.37014697265625,-0.054367005825042725,-0.17898350954055786,0.03787364438176155
1700823740213057000,11.38005712890625,-0.375071257352829,-0.12461651116609573,-0.019547687843441963
1700823740223188000,11.39018798828125,-0.7165449261665344,-0.11301007121801376,-0.16249015927314758
1700823740233213000,11.400212890625,-1.047023057937622,-0.19792033731937408,-0.45326200127601624
1700823740242996000,11.409995849609375,-1.3255776166915894,-0.19914206862449646,-0.8442157506942749
1700823740253005000,11.420005126953125,-1.4672982692718506,-0.2076941877603531,-1.207069754600525
1700823740263003000,11.4300029296875,-1.4013248682022095,-0.485027015209198,-1.4001030921936035
1700823740273069000,11.440069091796875,-1.1936306953430176,-0.8912523984909058,-1.4471397399902344
1700823740282979000,11.44997900390625,-0.9999864101409912,-1.2101240158081055,-1.3652838468551636
1700823740293196000,11.460196044921876,-0.8772025108337402,-1.3310753107070923,-1.1997393369674683
1700823740302987000,11.469987060546876,-0.8051204085350037,-0.8857545852661133,-1.0335839986801147
1700823740312949000,11.479948974609375,-0.6059783101081848,0.02382374368607998,-0.7678576111793518
1700823740322936000,11.48993603515625,-0.11301007121801376,0.49724429845809937,-0.27488934993743896
1700823740333227000,11.50022705078125,0.5809328556060791,0.485027015209198,0.20463985204696655
1700823740343061000,11.51006103515625,1.1673635244369507,0.40072759985923767,0.42210787534713745
1700823740353175000,11.520175048828126,1.7104226350784302,0.485027015209198,0.5644394755363464
1700823740363212000,11.5302119140625,2.163684606552124,0.7214318513870239,0.5687155723571777
1700823740373219000,11.540218994140625,2.549140691757202,0.8875871896743774,0.4239404797554016
1700823740383026000,11.55002587890625,2.917492389678955,0.788627028465271,0.2968805134296417
1700823740392977000,11.559976806640625,2.866790533065796,0.475253164768219,0.2370157092809677
1700823740403229000,11.57022900390625,2.3542747497558594,0.3646865487098694,0.12522737681865692
1700823740413223000,11.580222900390625,1.1551461219787598,0.2822197377681732,-0.08307767659425735
1700823740423206000,11.590205810546875,0.7324274182319641,-0.3390302062034607,-0.5369505286216736
1700823740433656000,11.600656005859374,0.4300491213798523,-0.543059229850769,-0.6224716901779175
1700823740443210000,11.6102099609375,0.1569923609495163,-0.4196644127368927,-0.4508185386657715
1700823740452989000,11.619989013671875,-0.1869247704744339,-0.03726277872920036,-0.19975294172763824
1700823740462985000,11.62998486328125,-0.5192354321479797,0.40133845806121826,-0.02076941914856434
1700823740472995000,11.6399951171875,-0.8515461683273315,0.8484918475151062,-0.03787364438176155
1700823740482960000,11.6499599609375,-1.1258246898651123,1.0806206464767456,-0.08796459436416626
1700823740492971000,11.659970947265625,-1.2528846263885498,0.9975429177284241,-0.06536258012056351
1700823740503128000,11.670128173828125,-1.321912407875061,0.7330383062362671,-0.04703662544488907
1700823740513013000,11.680012939453125,-1.2223412990570068,0.45631635189056396,0.01038470957428217
1700823740523150000,11.690150146484376,-1.0115928649902344,0.3585779070854187,0.09773843735456467
1700823740533056000,11.700055908203124,-0.8148942589759827,0.3695734739303589,0.15271630883216858
1700823740542952000,11.709951904296876,-0.5717698931694031,0.41599923372268677,0.0757472887635231
1700823740553144000,11.72014404296875,-0.242513507604599,0.46303585171699524,-0.015882495790719986
1700823740563078000,11.730077880859374,0.17592918872833252,0.45875978469848633,-0.012217304669320583
1700823740573155000,11.740155029296876,0.5381723046302795,0.36529740691185,-0.06963863968849182
1700823740583081000,11.7500810546875,0.8472700715065002,0.11484266817569733,-0.20341812074184418
1700823740592987000,11.75998681640625,1.0781772136688232,-0.2217440903186798,-0.394008070230484
1700823740603102000,11.77010205078125,1.302364706993103,-0.4550946056842804,-0.5699372887611389
1700823740613120000,11.7801201171875,1.557706356048584,-0.5302310585975647,-0.6963863968849182
1700823740623049000,11.790049072265624,1.7702875137329102,-0.4893030524253845,-0.7947356700897217
1700823740632921000,11.799921142578125,1.8466455936431885,-0.38117989897727966,-0.9462302923202515
1700823740643037000,11.810036865234375,1.786780834197998,-0.16371189057826996,-1.2015719413757324
1700823740653113000,11.820113037109374,1.5625933408737183,-0.04581489413976669,-1.5430456399917603
1700823740663155000,11.830155029296876,1.2290608882904053,-0.12400564551353455,-1.8118263483047485
1700823740673135000,11.840135009765625,0.8619308471679688,-0.1618792861700058,-1.8429805040359497
1700823740683081000,11.8500810546875,0.5290092825889587,-0.1661553531885147,-1.4569135904312134
1700823740693114000,11.860114013671875,0.2687807083129883,-0.17776179313659668,-0.6035348773002625
1700823740703108000,11.870108154296876,0.16554448008537292,-0.1368338167667389,0.40133845806121826
1700823740713067000,11.88006689453125,0.2015855312347412,-0.1667662113904953,1.1539244651794434
1700823740723090000,11.89008984375,0.3842342495918274,-0.2376265823841095,1.547932505607605
1700823740732996000,11.89999609375,1.2296717166900635,-0.07941248267889023,0.9450085163116455
1700823740742921000,11.9099208984375,1.3494013547897339,0.1722639948129654,0.48319441080093384
1700823740753047000,11.920047119140625,1.083064079284668,0.15821409225463867,0.1514945775270462
1700823740763001000,11.9300009765625,0.5968153476715088,0.06169738993048668,0.00733038317412138
1700823740773088000,11.940087890625,0.08735372871160507,-0.005497787147760391,0.025045474991202354
1700823740783206000,11.950205810546874,-0.21441370248794556,0.01710422709584236,0.09040805697441101
1700823740792994000,11.959994140625,-0.29565876722335815,0.08002334833145142,0.03848451003432274
1700823740803260000,11.970260009765624,-0.20830504596233368,0.09712757170200348,-0.05009094998240471
1700823740813246000,11.980245849609375,-0.060475658625364304,0.0708603709936142,-0.08124507963657379
1700823740823244000,11.990244140625,0.029932396486401558,0.016493361443281174,-0.04886921867728233
1700823740833009000,12.0000087890625,0.036651913076639175,-0.04886921867728233,0.039706241339445114
1700823740843224000,12.01022412109375,-0.02626720629632473,-0.09040805697441101,0.14294247329235077
1700823740853269000,12.02026904296875,-0.10445795953273773,-0.08124507963657379,0.19425514340400696
1700823740863238000,12.03023779296875,-0.16982053220272064,-0.05009094998240471,0.17287486791610718
1700823740873214000,12.0402138671875,-0.24923302233219147,0.004886921960860491,0.11972958594560623
1700823740883110000,12.05010986328125,-0.2785545587539673,0.06414084881544113,0.09773843735456467
1700823740892995000,12.0599951171875,-0.20463985204696655,0.06169738993048668,0.11972958594560623
1700823740902964000,12.0699638671875,-0.10690141469240189,0.030543262138962746,0.10323622822761536
1700823740913260000,12.080260009765626,-0.04459316283464432,-0.0354301854968071,0.028099801391363144
1700823740922927000,12.089927001953125,-0.025045474991202354,-0.09834930300712585,-0.08185594528913498
1700823740933031000,12.100031005859375,-0.04092797264456749,-0.12461651116609573,-0.1771509200334549
1700823740942924000,12.109924072265626,-0.051312681287527084,-0.09224065393209457,-0.20952677726745605
1700823740953062000,12.120061767578125,-0.04398229718208313,-0.10018189996480942,-0.22846360504627228
1700823740963041000,12.130041015625,-0.08368854224681854,-0.1007927656173706,-0.2681698501110077
1700823740973110000,12.140110107421876,-0.07635815441608429,-0.12767083942890167,-0.31154128909111023
1700823740983097000,12.15009716796875,-0.003054326167330146,-0.15271630883216858,-0.3738495409488678
1700823740993056000,12.160055908203125,0.0507018156349659,-0.11484266817569733,-0.4190535545349121
1700823741003179000,12.170178955078125,0.05253441259264946,-0.027488935738801956,-0.34086281061172485
1700823741013077000,12.180076904296875,-0.030543262138962746,0.1771509200334549,-0.07635815441608429
1700823741023169000,12.1901689453125,-0.17959438264369965,0.3188716471195221,0.27122417092323303
1700823741033149000,12.20014892578125,-0.2370157092809677,0.4355469346046448,0.4795292317867279
1700823741043205000,12.210205078125,-0.3634648323059082,0.1319468915462494,0.6340781450271606
1700823741053220000,12.22022021484375,-0.23396138846874237,0.02382374368607998,0.403781920671463
1700823741063178000,12.230177978515625,-0.17043140530586243,-0.13805554807186127,0.09773843735456467
1700823741073093000,12.240093017578126,-0.26572638750076294,-0.17104226350784302,-0.11911872029304504
1700823741083146000,12.25014599609375,-0.3274237811565399,-0.036041051149368286,-0.18325957655906677
1700823741093092000,12.260092041015625,-0.4141666293144226,0.005497787147760391,-0.13988813757896423
1700823741103078000,12.270077880859375,-0.5094616413116455,0.009773843921720982,-0.07757988572120667
1700823741113112000,12.280112060546875,-0.5125159621238708,0.033597588539123535,-0.01710422709584236
1700823741122905000,12.289905029296875,-0.4899139404296875,0.11362093687057495,0.0012217304902151227
1700823741132907000,12.299906982421875,-0.43676865100860596,0.18387043476104736,-0.021380282938480377
1700823741142977000,12.30997705078125,-0.3585779070854187,0.16798794269561768,-0.08918632566928864
1700823741153031000,12.320031005859375,-0.2528982162475586,-0.02871066704392433,-0.17348572611808777
1700823741163029000,12.330029052734375,-0.08185594528913498,-0.17959438264369965,-0.2119702398777008
1700823741173087000,12.3400869140625,-0.00855211354792118,-0.3237585723400116,-0.2217440903186798
1700823741182889000,12.349888916015624,-0.13744467496871948,-0.4141666293144226,-0.2321287989616394
1700823741192985000,12.359985107421876,-0.3121521472930908,-0.4153883755207062,-0.21380282938480377
1700823741202975000,12.36997509765625,-0.37568211555480957,-0.2785545587539673,-0.14355333149433136
1700823741212918000,12.37991796875,-0.36590829491615295,-0.10445795953273773,0.009162978269159794
1700823741222941000,12.38994091796875,-0.34636059403419495,0.04581489413976669,0.2076941877603531
1700823741232912000,12.399911865234374,-0.28527405858039856,0.1722639948129654,0.37140607833862305
1700823741242976000,12.40997607421875,-0.22907446324825287,0.17776179313659668,0.4349360466003418
1700823741253003000,12.4200029296875,-0.23273965716362,0.08002334833145142,0.3488040566444397
1700823741262914000,12.4299140625,-0.36529740691185,-0.021991148591041565,0.17470745742321014
1700823741272933000,12.43993310546875,-0.5345070958137512,-0.0403171069920063,0.03848451003432274
1700823741283028000,12.450028076171876,-0.7751879692077637,0.03420845419168472,-0.025045474991202354
1700823741293232000,12.460232177734374,-1.0891727209091187,0.10812314599752426,-0.007941247895359993
1700823741302926000,12.469926025390626,-1.2968668937683105,0.22907446324825287,0.11423180252313614
1700823741312904000,12.479904052734375,-1.1520918607711792,0.3549126982688904,0.3066543638706207
1700823741322949000,12.48994921875,-0.5241223573684692,0.36163222789764404,0.5583308339118958
1700823741332933000,12.49993310546875,-0.2370157092809677,0.3170390725135803,0.5668829679489136
1700823741342985000,12.50998486328125,-0.0806342139840126,0.18814650177955627,0.4990769028663635
1700823741353010000,12.520010009765626,-0.0006108652451075613,0.06780604273080826,0.15821409225463867
1700823741363108000,12.530108154296874,-0.030543262138962746,0.09896016865968704,0.03787364438176155
1700823741372899000,12.539899169921876,-0.10690141469240189,0.34147366881370544,-0.0006108652451075613
1700823741382994000,12.549993896484375,-0.19792033731937408,0.43615779280662537,0.11667526513338089
1700823741393062000,12.560061767578125,-0.26145032048225403,0.3891211748123169,0.25106561183929443
1700823741403016000,12.570015869140626,-0.29016098380088806,0.21013765037059784,0.30054569244384766
1700823741412994000,12.579994140625,-0.342695415019989,-0.08429940044879913,0.17531833052635193
1700823741422976000,12.58997607421875,-0.4392121136188507,-0.2535090744495392,-0.0806342139840126
1700823741433250000,12.60025,-0.6047565937042236,-0.13988813757896423,-0.2724458873271942
1700823741443049000,12.610049072265625,-0.8240572214126587,0.15577064454555511,-0.22479841113090515
1700823741453051000,12.62005078125,-1.1136072874069214,0.46364670991897583,0.039095375686883926
