time,seconds_elapsed,z,y,x
1700823729066710000,0.2337099609375,7.704541206359863,-0.013168109580874443,-1.8279730081558228
1700823729077331000,0.2443310546875,8.057685852050781,0.3579331636428833,-1.2988544702529907
1700823729087626500,0.25462646484375,8.631096839904785,0.5027823448181152,-0.8212111592292786
1700823729097795800,0.2647958984375,9.191340446472168,0.5997475385665894,-0.5626373887062073
1700823729107864800,0.27486474609375,9.331400871276855,0.7158663272857666,-0.31603461503982544
1700823729117895000,0.28489501953125,9.750386238098145,0.4345476031303406,-0.6787561774253845
1700823729127868000,0.294867919921875,9.891644477844238,-0.013168109580874443,-1.2342109680175781
1700823729137887500,0.304887451171875,10.104728698730469,0.0011971008498221636,-1.1456254720687866
1700823729147967700,0.3149677734375,10.134655952453613,0.1999158412218094,-0.8583213090896606
1700823729158049800,0.3250498046875,9.822212219238281,0.3447650372982025,-0.6524199843406677
1700823729168429300,0.33542919921875,9.409213066101074,0.4728548228740692,-0.7182605266571045
1700823729178360800,0.34536083984375,9.181763648986816,0.46088382601737976,-1.260547161102295
1700823729188204300,0.355204345703125,9.715670585632324,0.016759412363171577,-2.0805611610412598
1700823729198672100,0.365672119140625,9.548076629638672,0.16160862147808075,-1.7573440074920654
1700823729208258600,0.375258544921875,9.697713851928711,0.28730419278144836,-1.260547161102295
1700823729218547700,0.385547607421875,9.786299705505371,0.6476315855979919,-0.8475474119186401
1700823729228345300,0.395345458984375,9.329007148742676,0.9397241473197937,-0.43933600187301636
1700823729238201000,0.405201171875,9.32661247253418,1.161187767982483,-0.6117185354232788
1700823729248116500,0.415116455078125,9.601945877075195,1.0283095836639404,-1.0091559886932373
1700823729258064000,0.42506396484375,9.77672290802002,0.6476315855979919,-1.434126853942871
1700823729268321300,0.4353212890625,10.065223693847656,0.3866635859012604,-1.622071623802185
1700823729278165800,0.445165771484375,10.02811336517334,0.30526071786880493,-1.5430630445480347
1700823729288075300,0.4550751953125,9.850942611694336,0.3603273630142212,-1.4856021404266357
1700823729298056700,0.465056640625,9.701305389404297,0.788889467716217,-1.43532395362854
1700823729308153900,0.47515380859375,9.534908294677734,1.1863269805908203,-1.4676456451416016
1700823729318197500,0.485197509765625,9.3026704788208,1.3263877630233765,-1.5059528350830078
1700823729328050200,0.49505029296875,9.750386238098145,1.136048674583435,-1.0438719987869263
1700823729337963000,0.504962890625,10.424354553222656,0.49799394607543945,-1.2701239585876465
1700823729348058000,0.51505810546875,10.253169059753418,0.2932897210121155,-1.6819267272949219
1700823729357975600,0.5249755859375,10.012551307678223,0.1364694982767105,-2.074575662612915
1700823729368259800,0.535259765625,11.401188850402832,0.017956512048840523,-2.160767078399658
1700823729378137300,0.545137451171875,12.11825180053711,0.1999158412218094,-2.079364061355591
1700823729388010800,0.5550107421875,11.589133262634277,0.2885012924671173,-2.0865468978881836
1700823729397959400,0.56495947265625,9.319430351257324,0.4165911078453064,-1.8555063009262085
1700823729408002600,0.57500244140625,7.961917877197266,0.35434186458587646,-1.5466543436050415
1700823729418133200,0.58513330078125,8.401253700256348,0.2621650993824005,-1.7381904125213623
1700823729428013600,0.595013671875,8.890868186950684,0.5722141861915588,-1.7573440074920654
1700823729438024000,0.60502392578125,9.01895809173584,0.8044517636299133,-1.2952631711959839
1700823729448043000,0.61504296875,8.904036521911621,0.9600749015808105,-0.8595184087753296
1700823729457967400,0.62496728515625,9.494206428527832,0.889445960521698,-0.9911994934082031
1700823729468006700,0.635006591796875,9.928754806518555,0.768538773059845,-1.403002142906189
1700823729478526000,0.64552587890625,9.945513725280762,0.8942343592643738,-1.8279730081558228
1700823729488213000,0.655212890625,9.611522674560547,0.9720458984375,-1.8626888990402222
1700823729498059500,0.6650595703125,9.519346237182617,0.7182605266571045,-1.502361536026001
1700823729507980800,0.674980712890625,9.71926212310791,0.547075092792511,-0.788889467716217
1700823729517943300,0.684943359375,9.907206535339355,0.5494692921638489,-0.2693476974964142
1700823729527890700,0.694890625,9.93474006652832,0.5829881429672241,-0.25737667083740234
1700823729537912800,0.704912841796875,9.886856079101562,0.6775590777397156,-0.3531447649002075
1700823729548017400,0.715017333984375,9.84256362915039,0.9660604000091553,-0.585382342338562
1700823729557968100,0.724968017578125,9.624691009521484,1.2856862545013428,-0.9397241473197937
1700823729567937500,0.7349375,9.368511199951172,1.314416766166687,-1.2234370708465576
1700823729577940700,0.744940673828125,9.26795482635498,1.169567584991455,-1.4209587574005127
1700823729587986400,0.754986328125,8.773551940917969,1.0570400953292847,-1.2078747749328613
1700823729598244600,0.76524462890625,9.253589630126953,0.7350199222564697,-1.0534487962722778
1700823729608053800,0.7750537109375,9.821015357971191,0.8535329103469849,-0.8008604645729065
1700823729618002000,0.785001953125,10.253169059753418,1.07379949092865,-0.46088382601737976
1700823729627936000,0.79493603515625,10.193313598632812,0.99479079246521,-0.46567222476005554
1700823729637952500,0.804952392578125,9.551667213439941,1.1192892789840698,-0.6871358752250671
1700823729648070100,0.815070068359375,9.151836395263672,1.292868971824646,-1.137245774269104
1700823729657982200,0.824982177734375,8.801085472106934,1.4209587574005127,-1.416170358657837
1700823729667925500,0.834925537109375,8.676587104797363,1.4700398445129395,-1.43532395362854
1700823729677931300,0.84493115234375,8.913613319396973,1.3479355573654175,-1.521515130996704
1700823729687897600,0.854897705078125,9.718064308166504,1.169567584991455,-1.8854337930679321
1700823729697949400,0.864949462890625,10.078392028808594,1.6950948238372803,-1.3180080652236938
1700823729708240100,0.875240234375,9.634267807006836,1.6424223184585571,-0.6572083830833435
1700823729718071600,0.885071533203125,9.188945770263672,1.3730746507644653,-0.4405331015586853
1700823729727968300,0.89496826171875,9.287108421325684,1.3000515699386597,-0.47165772318840027
1700823729737946000,0.904946044921875,9.550470352172852,1.558625340461731,-0.46327802538871765
1700823729747974700,0.914974609375,9.57201862335205,1.7166426181793213,-0.5781996846199036
1700823729757940700,0.924940673828125,9.532513618469238,1.7729063034057617,-0.9971849918365479
1700823729768041500,0.93504150390625,9.44991397857666,1.86508309841156,-1.114500880241394
1700823729778031600,0.945031494140625,9.10993766784668,1.8291701078414917,-0.9528923034667969
1700823729788014800,0.955014892578125,8.543708801269531,1.6879122257232666,-0.8990227580070496
1700823729798117400,0.965117431640625,8.665813446044922,1.5670050382614136,-0.9253589510917664
1700823729808127700,0.975127685546875,8.83939266204834,1.702277421951294,-0.7206547260284424
1700823729818164700,0.985164794921875,9.509769439697266,1.7094600200653076,-0.47644615173339844
1700823729828173300,0.99517333984375,10.042478561401367,1.7537527084350586,-0.6212953329086304
1700823729838093300,1.00509326171875,9.995792388916016,1.866280198097229,-0.6775590777397156
1700823729848123100,1.015123046875,9.955090522766113,1.6879122257232666,-0.8702923059463501
1700823729858047500,1.025047607421875,9.331400871276855,1.578976035118103,-0.9971849918365479
1700823729868051700,1.0350517578125,9.315838813781738,1.7046716213226318,-1.0857704877853394
1700823729878008800,1.0450087890625,9.27034854888916,1.7980455160140991,-1.0666168928146362
1700823729888685800,1.055685791015625,9.498994827270508,1.6041151285171509,-0.9672574996948242
1700823729898304500,1.065304443359375,9.852140426635742,1.459265947341919,-0.5003881454467773
1700823729908117200,1.0751171875,10.107122421264648,1.4053963422775269,0.0071826050989329815
1700823729918039600,1.08503955078125,10.672154426574707,1.5263035297393799,-0.14604631066322327
1700823729927991800,1.09499169921875,10.986991882324219,1.7741034030914307,-0.49799394607543945
1700823729937975800,1.104975830078125,10.484209060668945,1.7369933128356934,-0.8942343592643738
1700823729948203500,1.11520361328125,9.418789863586426,1.6053122282028198,-1.282094955444336
1700823729958091300,1.12509130859375,8.898050308227539,1.525106430053711,-1.41257905960083
1700823729968552200,1.13555224609375,9.489418029785156,1.3886369466781616,-0.7852981686592102
1700823729978235600,1.145235595703125,9.489418029785156,1.3886369466781616,-0.7852981686592102
1700823729988106800,1.155106689453125,9.981427192687988,1.455674648284912,-0.5805938839912415
1700823729998049300,1.16504931640625,9.848548889160156,1.4867992401123047,-0.5351040959358215
1700823730007990300,1.174990234375,9.624691009521484,1.45806884765625,-0.5159504413604736
1700823730017952500,1.184952392578125,9.852140426635742,1.4532804489135742,-0.6404489278793335
1700823730028181200,1.19518115234375,10.571598052978516,1.4101848602294922,-1.013944387435913
1700823730038395100,1.20539501953125,11.153388977050781,1.43532395362854,-1.659181833267212
1700823730048256000,1.215256103515625,10.876858711242676,1.5753847360610962,-1.98958158493042
1700823730058116000,1.2251162109375,9.640253067016602,1.4628572463989258,-2.1068975925445557
1700823730068031000,1.235031005859375,8.761581420898438,1.3012486696243286,-1.5705963373184204
1700823730078040600,1.24504052734375,8.361749649047852,1.2521674633026123,-1.071405291557312
1700823730087998200,1.254998291015625,8.4108304977417,1.2832920551300049,-0.9193734526634216
1700823730097957000,1.26495703125,8.752004623413086,1.280897855758667,-0.7852981686592102
1700823730108204500,1.27520458984375,9.502586364746094,1.3048399686813354,-0.9612720012664795
1700823730118054700,1.2850546875,10.002974510192871,1.2964602708816528,-1.217451572418213
1700823730127960300,1.294960205078125,10.29746150970459,1.294066071510315,-1.3012486696243286
1700823730137937700,1.304937744140625,10.467450141906738,1.3048399686813354,-1.1779472827911377
1700823730147922000,1.314921875,10.577583312988281,1.3395558595657349,-1.1563993692398071
1700823730157986000,1.324986083984375,10.129867553710938,1.3263877630233765,-1.136048674583435
1700823730167960600,1.334960693359375,9.763554573059082,1.3108254671096802,-1.1276689767837524
1700823730178005800,1.345005859375,9.467870712280273,1.5047557353973389,-1.173158884048462
1700823730187943000,1.35494287109375,8.859743118286133,1.5275006294250488,-1.1755530834197998
1700823730198022000,1.36502197265625,8.286332130432129,1.4484920501708984,-1.3958195447921753
1700823730207938600,1.3749384765625,8.042123794555664,1.4951789379119873,-1.5897499322891235
1700823730217910300,1.38491015625,8.38449478149414,1.5119383335113525,-1.8160020112991333
1700823730227919000,1.394919189453125,8.826224327087402,1.5693992376327515,-1.965639591217041
1700823730237917400,1.40491748046875,9.133879661560059,1.5167267322540283,-1.9740192890167236
1700823730248051200,1.41505126953125,9.62947940826416,1.4317326545715332,-1.8842366933822632
1700823730258012200,1.42501220703125,9.939528465270996,1.4772224426269531,-1.8399440050125122
1700823730268007200,1.435007080078125,10.014945983886719,1.4437036514282227,-1.9548656940460205
1700823730277986000,1.444986083984375,9.870096206665039,1.4520833492279053,-2.0410568714141846
1700823730287992000,1.454991943359375,10.557232856750488,1.5981296300888062,-1.5119383335113525
1700823730297984500,1.464984619140625,9.676166534423828,1.4437036514282227,-1.278503656387329
1700823730307975200,1.47497509765625,8.723274230957031,1.2198457717895508,-1.3419500589370728
1700823730317994200,1.484994140625,8.315062522888184,1.5119383335113525,-1.5155296325683594
1700823730328085000,1.4950849609375,8.427590370178223,1.5837644338607788,-1.3946224451065063
1700823730338133500,1.505133544921875,8.111555099487305,1.3024457693099976,-1.2078747749328613
1700823730348090400,1.51509033203125,7.50462532043457,0.9696516990661621,-0.8319851160049438
1700823730358003200,1.525003173828125,7.712920665740967,0.7996633648872375,-0.5315127968788147
1700823730367952100,1.5349521484375,8.662221908569336,0.8307880163192749,-0.6919242739677429
1700823730377916400,1.54491650390625,9.240421295166016,0.8990227580070496,-1.6292542219161987
1700823730388001300,1.555001220703125,9.249998092651367,1.2222399711608887,-1.9069817066192627
1700823730398001700,1.565001708984375,8.670601844787598,1.1109095811843872,-1.9512743949890137
1700823730408031700,1.57503173828125,8.6897554397583,0.9744400978088379,-2.45285964012146
1700823730418006500,1.585006591796875,8.329427719116211,0.8439561128616333,-2.82515811920166
1700823730428007700,1.595007568359375,6.470330238342285,0.7529764175415039,-3.0609867572784424
1700823730438002000,1.605001953125,1.8698714971542358,-0.09576806426048279,-2.955641984939575
1700823730447949800,1.61494970703125,-0.18315643072128296,-0.7601590156555176,-2.603694438934326
1700823730457982000,1.62498193359375,2.80361008644104,-0.5578489899635315,-1.702277421951294
1700823730468010000,1.635010009765625,9.657012939453125,-0.07182604819536209,-1.4664485454559326
1700823730478107400,1.645107421875,8.825027465820312,0.395043283700943,-2.698265314102173
1700823730488043800,1.655043701171875,5.2480902671813965,0.5710170865058899,-4.200626850128174
1700823730498153000,1.665153076171875,9.461885452270508,0.9756371974945068,-3.47039532661438
1700823730508095500,1.675095458984375,15.436614990234375,1.0642226934432983,-1.8471266031265259
1700823730518209800,1.685209716796875,16.747440338134766,0.8547300100326538,0.07781155407428741
1700823730528692500,1.6956923828125,13.365631103515625,0.569819986820221,1.6424223184585571
1700823730538314200,1.705314208984375,9.747992515563965,0.15801730751991272,1.238999366760254
1700823730548088000,1.715088134765625,8.744821548461914,-0.36750996112823486,-0.7003039717674255
1700823730558004000,1.72500390625,12.76109504699707,-0.43095630407333374,-2.2828712463378906
1700823730567917600,1.73491748046875,13.606247901916504,-1.1312602758407593,-3.26688814163208
1700823730577941800,1.744941650390625,12.29662036895752,-1.0259153842926025,-2.646790027618408
1700823730587959300,1.754959228515625,11.12226390838623,-0.6248866319656372,-0.29807811975479126
1700823730597977600,1.7649775390625,9.464279174804688,-0.6021417379379272,1.0091559886932373
1700823730607915800,1.774915771484375,8.90762710571289,-1.0031704902648926,1.4221558570861816
1700823730617929000,1.784928955078125,10.155006408691406,-1.3251906633377075,1.6867151260375977
1700823730627954000,1.794953857421875,10.411186218261719,-1.4185645580291748,1.599326729774475
1700823730637967000,1.804967041015625,12.374431610107422,-1.580173134803772,0.31364041566848755
1700823730647983000,1.814983154296875,12.536040306091309,-1.8100165128707886,-0.7541735172271729
1700823730657989400,1.8249892578125,13.078327178955078,-1.8986018896102905,-1.4317326545715332
1700823730668003800,1.83500390625,13.079524040222168,-1.8171991109848022,-1.5682021379470825
1700823730678011400,1.845011474609375,13.151350021362305,-2.1068975925445557,-1.4844050407409668
1700823730687977700,1.854977783203125,13.1908540725708,-2.542642116546631,-1.0438719987869263
1700823730697998300,1.864998291015625,13.711592674255371,-2.495955228805542,-0.304063618183136
1700823730708006700,1.875006591796875,12.509703636169434,-2.2888567447662354,0.40462008118629456
1700823730718011000,1.885010986328125,10.60032844543457,-2.5462334156036377,0.9564836025238037
1700823730728019500,1.89501953125,10.223240852355957,-2.9508535861968994,1.2653355598449707
1700823730738011100,1.90501123046875,10.001777648925781,-2.9915549755096436,1.1755530834197998
1700823730748044500,1.91504443359375,9.117119789123535,-2.366668462753296,0.8607155084609985
1700823730758034200,1.9250341796875,8.752004623413086,-1.843535304069519,0.4692635238170624
1700823730768070700,1.935070556640625,9.187748908996582,-1.7345991134643555,0.1843535304069519
1700823730778088000,1.945087890625,9.827000617980957,-1.5095441341400146,0.38067805767059326
1700823730788007400,1.95500732421875,10.340557098388672,-1.159990668296814,0.872686505317688
1700823730797993200,1.9649931640625,10.44350814819336,-0.9852139949798584,1.0809820890426636
1700823730807924200,1.97492431640625,9.751583099365234,-1.1671733856201172,0.6943184733390808
1700823730817930500,1.984930419921875,9.009381294250488,-1.5490485429763794,0.04668693244457245
1700823730827905800,1.99490576171875,8.577227592468262,-1.8986018896102905,-0.44771572947502136
1700823730837937400,2.0049375,8.738836288452148,-2.1116859912872314,-0.7817068696022034
1700823730847912200,2.014912109375,9.20091724395752,-2.1308395862579346,-0.9900023937225342
1700823730857964500,2.024964599609375,9.516951560974121,-2.117671489715576,-1.2342109680175781
1700823730867982800,2.03498291015625,9.567230224609375,-1.8854337930679321,-1.2330138683319092
1700823730878015500,2.045015380859375,9.498994827270508,-1.5682021379470825,-1.1839327812194824
1700823730888107300,2.055107177734375,9.126696586608887,-1.3323732614517212,-0.9911994934082031
1700823730898099200,2.06509912109375,8.762778282165527,-1.2306196689605713,-0.48602294921875
1700823730908071200,2.0750712890625,8.694543838500977,-1.2413935661315918,-0.243011474609375
1700823730918091500,2.085091552734375,8.50061321258545,-1.1097124814987183,-0.4225766062736511
1700823730928080000,2.095079833984375,8.547300338745117,-1.01753568649292,-0.5051765441894531
1700823730938095400,2.105095458984375,9.769539833068848,-0.9085995554924011,-0.3627215623855591
1700823730948107300,2.115107177734375,9.78989028930664,-0.7876923680305481,-0.3447650372982025
1700823730958112000,2.125112060546875,9.525331497192383,-0.8188169598579407,-0.5027823448181152
1700823730968076500,2.13507666015625,9.952696800231934,-1.2880805730819702,-1.1851298809051514
1700823730978152700,2.145152587890625,10.014945983886719,-1.6316484212875366,-1.3778630495071411
1700823730988121300,2.155121337890625,8.978256225585938,-1.7178397178649902,-1.171961784362793
1700823730998158600,2.16515869140625,8.034940719604492,-1.7729063034057617,-0.9911994934082031
1700823731008130800,2.175130859375,7.81108283996582,-1.8195933103561401,-0.5973533391952515
1700823731018168800,2.1851689453125,8.164227485656738,-1.823184609413147,-0.37229835987091064
1700823731028134400,2.195134521484375,8.856152534484863,-2.0159177780151367,-0.8427590131759644
1700823731038133800,2.2051337890625,9.591172218322754,-2.121262788772583,-1.5837644338607788
1700823731048107800,2.215107666015625,10.935516357421875,-2.2361843585968018,-2.4145524501800537
1700823731058017500,2.225017578125,12.00452709197998,-2.321178436279297,-3.0131027698516846
1700823731067993000,2.2349931640625,11.622652053833008,-2.2026655673980713,-2.852691411972046
1700823731077983200,2.244983154296875,11.276689529418945,-1.7070658206939697,-1.9764134883880615
1700823731087972600,2.25497265625,11.440692901611328,-1.2617442607879639,-1.1659762859344482
1700823731097980700,2.264980712890625,11.287464141845703,-1.4676456451416016,-1.0007762908935547
1700823731107982300,2.274982421875,10.57040023803711,-1.7477672100067139,-0.9660604000091553
1700823731117988000,2.284988037109375,9.645041465759277,-1.9189527034759521,-1.157596468925476
1700823731127942100,2.294942138671875,9.048885345458984,-1.9309237003326416,-1.3467384576797485
1700823731137972000,2.304971923828125,8.877699851989746,-1.890222191810608,-1.4065934419631958
1700823731147991000,2.314990966796875,8.877699851989746,-1.644816517829895,-1.094150185585022
1700823731158005500,2.325005615234375,9.126696586608887,-1.291671872138977,-0.8319851160049438
1700823731167946200,2.3349462890625,9.32541561126709,-1.0067617893218994,-1.0881646871566772
1700823731177921000,2.344921142578125,9.543288230895996,-1.0043675899505615,-1.499967336654663
1700823731187969000,2.354968994140625,9.62828254699707,-1.05105459690094,-1.7501614093780518
1700823731197986000,2.364986083984375,9.838972091674805,-1.1264718770980835,-1.820790410041809
1700823731208060000,2.375059814453125,10.046070098876953,-1.0821791887283325,-1.6172832250595093
1700823731218145500,2.3851455078125,10.023324966430664,-1.0091559886932373,-1.3970166444778442
1700823731228112600,2.395112548828125,9.734824180603027,-0.9995791912078857,-1.358709454536438
1700823731237996800,2.404996826171875,9.494206428527832,-1.0283095836639404,-1.3024457693099976
1700823731247933000,2.414932861328125,8.597578048706055,-1.4484920501708984,-1.1073182821273804
1700823731258005500,2.425005615234375,8.455122947692871,-1.2629413604736328,-0.9026140570640564
1700823731268037000,2.435037109375,8.696937561035156,-0.9361328482627869,-1.1013327836990356
1700823731278266000,2.44526611328125,9.374496459960938,-0.7134721279144287,-1.3551181554794312
1700823731288058000,2.45505810546875,9.850942611694336,-0.4752490520477295,-1.6879122257232666
1700823731297971000,2.464970947265625,9.794678688049316,-0.2645592987537384,-1.922544002532959
1700823731307962600,2.474962646484375,9.66419506072998,-0.30047231912612915,-1.9835960865020752
1700823731317930200,2.48493017578125,9.47265911102295,-0.7038952708244324,-1.9596540927886963
1700823731327934700,2.494934814453125,9.159018516540527,-1.0905588865280151,-1.6268600225448608
1700823731337939200,2.504939208984375,8.6897554397583,-1.3886369466781616,-1.3551181554794312
1700823731347940000,2.514940185546875,8.718485832214355,-1.4401123523712158,-0.9971849918365479
1700823731357949700,2.52494970703125,9.733627319335938,-1.2737152576446533,-0.5542576909065247
1700823731367952000,2.534951904296875,10.016142845153809,-1.048660397529602,-0.6428431272506714
1700823731377946400,2.5449462890625,9.763554573059082,-0.8008604645729065,-1.0235211849212646
1700823731387963600,2.554963623046875,9.90361499786377,-0.690727174282074,-1.4185645580291748
1700823731397970000,2.564969970703125,9.817423820495605,-0.7110779285430908,-1.9117701053619385
1700823731407993900,2.574993896484375,9.321824073791504,-0.6105214357376099,-2.160767078399658
1700823731418145500,2.5851455078125,9.005789756774902,-0.730231523513794,-2.360682964324951
1700823731428156700,2.59515673828125,8.705317497253418,-0.8008604645729065,-2.434903144836426
1700823731438075000,2.605074951171875,9.039308547973633,-0.5925649404525757,-2.2158336639404297
1700823731448024300,2.6150244140625,9.536105155944824,-0.36990416049957275,-1.9847931861877441
1700823731458029800,2.62502978515625,9.767146110534668,-0.3603273630142212,-2.0638017654418945
1700823731468012800,2.6350126953125,9.627084732055664,-0.31364041566848755,-2.3367409706115723
1700823731478065400,2.6450654296875,9.247604370117188,-0.21428105235099792,-2.565387010574341
1700823731487971300,2.654971435546875,9.327810287475586,-0.05267243832349777,-2.4145524501800537
1700823731498035700,2.66503564453125,9.822212219238281,-0.013168109580874443,-2.316390037536621
1700823731508028400,2.6750283203125,10.1382474899292,0.002394201699644327,-2.205059766769409
1700823731518020000,2.68502001953125,10.093954086303711,-0.11611878126859665,-2.209848165512085
1700823731528042000,2.6950419921875,10.093954086303711,-0.2693476974964142,-2.2840683460235596
1700823731538011100,2.70501123046875,9.891644477844238,-0.30047231912612915,-2.2146365642547607
1700823731548025600,2.715025634765625,9.726444244384766,-0.26096799969673157,-2.098517894744873
1700823731557956900,2.724956787109375,8.965087890625,-0.39145198464393616,-1.843535304069519
1700823731567993900,2.734993896484375,8.917203903198242,-0.5183446407318115,-1.7896658182144165
1700823731578190300,2.7451904296875,8.791508674621582,-0.6560112833976746,-1.5155296325683594
1700823731588163800,2.755163818359375,8.635885238647461,-0.9313444495201111,-1.5263035297393799
1700823731598042400,2.76504248046875,8.752004623413086,-0.9002198576927185,-1.3611036539077759
1700823731607970600,2.774970458984375,9.289502143859863,-0.6739677786827087,-1.1887211799621582
1700823731617939500,2.784939453125,10.375272750854492,-0.3172317147254944,-1.0522516965866089
1700823731627992600,2.79499267578125,11.007342338562012,-0.035913024097681046,-0.8331822156906128
1700823731637950700,2.80495068359375,10.856507301330566,-0.21428105235099792,-0.6739677786827087
1700823731647959300,2.814959228515625,10.14782428741455,-0.5877765417098999,-0.3603273630142212
1700823731658049300,2.82504931640625,9.72285270690918,-0.7960720658302307,0.0694318488240242
1700823731668015600,2.835015625,9.556455612182617,-0.9241618514060974,0.2059013396501541
1700823731678090800,2.8450908203125,9.26795482635498,-1.1264718770980835,0.05626374110579491
1700823731688061400,2.8550615234375,8.832210540771484,-1.070208191871643,-0.1256955862045288
1700823731698105600,2.865105712890625,8.638279914855957,-0.9277531504631042,-0.3363853394985199
1700823731708078300,2.875078369140625,8.954314231872559,-0.7829039692878723,-0.4908113479614258
1700823731718113800,2.88511376953125,9.398438453674316,-0.7972691655158997,-0.6560112833976746
1700823731728327000,2.895326904296875,9.336189270019531,-0.9624691009521484,-0.7398083209991455
1700823731738281500,2.905281494140625,9.5624418258667,-1.2653355598449707,-0.646434485912323
1700823731748250000,2.91525,9.566033363342285,-1.3539210557937622,-0.25737667083740234
1700823731758083600,2.92508349609375,9.221267700195312,-1.291671872138977,0.17477671802043915
1700823731768022800,2.935022705078125,9.271546363830566,-1.4532804489135742,0.43095630407333374
1700823731778004500,2.94500439453125,9.349357604980469,-1.556231141090393,0.6344634294509888
1700823731787997700,2.954997802734375,8.75080680847168,-1.5909470319747925,0.8846575021743774
1700823731797986300,2.964986328125,8.482656478881836,-1.7621324062347412,0.8750807046890259
1700823731807958300,2.974958251953125,8.537723541259766,-1.9536685943603516,0.8152256608009338
1700823731817886200,2.98488623046875,9.060855865478516,-2.141613483428955,0.9074024558067322
1700823731827972600,2.99497265625,9.461885452270508,-2.456450939178467,1.0833762884140015
1700823731838030300,3.0050302734375,9.953893661499023,-2.5761611461639404,1.7393875122070312
1700823731848044500,3.01504443359375,9.979032516479492,-2.4193408489227295,2.4839842319488525
1700823731857965300,3.02496533203125,10.067618370056152,-2.322375535964966,3.250128746032715
1700823731867913200,3.034913330078125,9.649829864501953,-2.2182278633117676,4.320336818695068
1700823731878026500,3.045026611328125,10.226832389831543,-2.7222073078155518,4.380191802978516
1700823731888044800,3.055044921875,9.094375610351562,-2.456450939178467,4.5836992263793945
1700823731898093800,3.06509375,7.943961143493652,-2.1296424865722656,3.6822822093963623
1700823731908009500,3.075009521484375,7.418434143066406,-2.2888567447662354,2.8095955848693848
1700823731917998300,3.084998291015625,7.067683219909668,-2.5761611461639404,2.1152772903442383
1700823731928564700,3.095564697265625,7.744045257568359,-2.6431987285614014,1.923741102218628
1700823731938243300,3.105243408203125,8.426392555236816,-2.387019157409668,2.279279947280884
1700823731948097500,3.11509765625,10.168174743652344,-2.3726539611816406,1.886630892753601
1700823731958014700,3.1250146484375,9.710882186889648,-3.3889925479888916,2.78086519241333
1700823731968008000,3.135008056640625,9.527725219726562,-4.177882194519043,4.8051629066467285
1700823731978012000,3.145011962890625,9.386467933654785,-3.561375141143799,6.515820026397705
1700823731987998500,3.15499853515625,8.736441612243652,-2.647987127304077,7.4770917892456055
1700823731997994800,3.164994873046875,7.948749542236328,-3.247734546661377,6.45357084274292
1700823732007987000,3.174987060546875,7.570465564727783,-4.651933670043945,4.72376012802124
1700823732017964500,3.184964599609375,7.659051418304443,-5.079298973083496,3.269282341003418
1700823732028055300,3.19505517578125,9.162610054016113,-4.027047157287598,1.5275006294250488
1700823732038129700,3.205129638671875,10.711658477783203,-3.3482911586761475,-0.03950432687997818
1700823732048041700,3.215041748046875,12.434286117553711,-3.8498764038085938,-0.7469909191131592
1700823732058274800,3.22527490234375,13.285425186157227,-4.754884719848633,-0.4704606235027313
1700823732068071400,3.235071533203125,11.45266342163086,-4.151545524597168,1.0402805805206299
1700823732078393300,3.245393310546875,9.391256332397461,-3.626018524169922,2.385822057723999
1700823732088185000,3.25518505859375,8.070854187011719,-4.088099479675293,3.335123062133789
1700823732098078000,3.265077880859375,7.527369976043701,-4.853046894073486,5.280411720275879
1700823732107993000,3.2749931640625,7.842207431793213,-4.486733913421631,6.980295181274414
1700823732117947100,3.284947021484375,7.01979923248291,-4.010287761688232,7.893682956695557
1700823732128089000,3.295089111328125,7.150283336639404,-3.8139634132385254,6.736086368560791
1700823732137984500,3.304984619140625,7.297526836395264,-3.4153287410736084,5.371391296386719
1700823732147919400,3.31491943359375,8.699332237243652,-3.6942532062530518,3.824737310409546
1700823732157909500,3.324909423828125,10.360907554626465,-4.022258758544922,2.319981336593628
1700823732167946800,3.33494677734375,10.096348762512207,-3.912125587463379,1.2677297592163086
1700823732177931000,3.344930908203125,8.725667953491211,-3.6942532062530518,2.276885747909546
1700823732187903000,3.354903076171875,8.501810073852539,-3.6583402156829834,3.5661635398864746
1700823732197894000,3.364893798828125,8.954314231872559,-2.8838160037994385,4.675876140594482
1700823732207914000,3.3749140625,9.403226852416992,-2.366668462753296,4.711789131164551
1700823732217919000,3.3849189453125,9.605537414550781,-2.3918075561523438,3.4105403423309326
1700823732227930600,3.3949306640625,9.81024169921875,-2.6216509342193604,1.3910311460494995
1700823732237944800,3.40494482421875,10.049661636352539,-2.1356279850006104,-0.4596867263317108
1700823732247949800,3.41494970703125,9.764751434326172,-1.3874398469924927,-1.5765818357467651
1700823732257947400,3.424947509765625,9.41400146484375,-1.0223240852355957,-1.4053963422775269
1700823732267950600,3.43495068359375,9.429563522338867,-1.8171991109848022,0.10773907601833344
1700823732277970000,3.444969970703125,9.081207275390625,-3.469198226928711,1.647210717201233
1700823732287970000,3.454969970703125,7.326257228851318,-3.800795316696167,2.383427858352661
1700823732297980000,3.46497998046875,5.395333766937256,-3.737348794937134,2.8574798107147217
1700823732307987000,3.474987060546875,4.772840976715088,-3.5697548389434814,3.4727895259857178
1700823732317992000,3.484991943359375,5.747281074523926,-3.0837318897247314,3.772064685821533
1700823732327997400,3.49499755859375,7.0341644287109375,-2.5007436275482178,3.827131509780884
1700823732337976300,3.504976318359375,8.279149055480957,-2.0865468978881836,3.47039532661438
1700823732347987700,3.51498779296875,9.45111083984375,-2.146401882171631,2.831143617630005
1700823732357955300,3.524955322265625,10.286687850952148,-2.2254104614257812,2.4815900325775146
1700823732368130600,3.535130615234375,10.939107894897461,-2.7042508125305176,2.300827741622925
1700823732378060300,3.545060302734375,10.164583206176758,-3.5015199184417725,2.3930046558380127
1700823732388009700,3.555009765625,7.94635534286499,-3.9037458896636963,2.2577321529388428
1700823732398048800,3.565048828125,6.7480573654174805,-4.042609691619873,1.9740192890167236
1700823732408014800,3.575014892578125,7.094019412994385,-4.3861775398254395,1.4472949504852295
1700823732418008600,3.585008544921875,7.1670427322387695,-4.022258758544922,1.3000515699386597
1700823732428016000,3.59501611328125,7.657854080200195,-3.00711727142334,1.7322049140930176
1700823732438058500,3.60505859375,8.89565658569336,-1.765723705291748,2.73537540435791
1700823732447970300,3.61497021484375,8.974664688110352,-1.0271124839782715,3.2980127334594727
1700823732457947600,3.62494775390625,8.803479194641113,-1.522712230682373,3.268085241317749
1700823732467910400,3.634910400390625,7.935581684112549,-2.7437551021575928,3.117250680923462
1700823732477930800,3.6449306640625,7.9846625328063965,-3.3219549655914307,3.332728862762451
1700823732487949800,3.65494970703125,12.919112205505371,-4.663905143737793,4.286818027496338
1700823732497917000,3.6649169921875,6.961141586303711,-2.3582887649536133,4.875791549682617
1700823732507923500,3.67492333984375,8.153453826904297,-1.4233529567718506,4.356249809265137
1700823732517949200,3.68494921875,8.31865406036377,-0.7936778664588928,5.565321922302246
1700823732527981600,3.694981689453125,8.65982723236084,0.3998316824436188,4.878185749053955
1700823732537998300,3.704998291015625,9.117119789123535,-0.4273650050163269,4.134786128997803
1700823732548005000,3.715005126953125,8.469488143920898,-1.7070658206939697,4.413711071014404
1700823732558044700,3.725044677734375,6.525396823883057,-3.3854012489318848,4.109647274017334
1700823732567979800,3.734979736328125,5.318718910217285,-4.623203277587891,3.58292293548584
1700823732578006800,3.7450068359375,5.370194435119629,-4.005499362945557,4.241328239440918
1700823732588095500,3.755095458984375,6.392518520355225,-3.3674447536468506,4.504690647125244
1700823732598139100,3.76513916015625,8.641871452331543,-2.5546131134033203,6.384139060974121
1700823732608313600,3.775313720703125,10.679336547851562,-2.4660277366638184,7.3681559562683105
1700823732618185700,3.785185791015625,10.849325180053711,-3.754108190536499,7.42681360244751
1700823732628147500,3.7951474609375,11.897985458374023,-4.853046894073486,7.627926826477051
1700823732638085600,3.805085693359375,10.219650268554688,-4.842272758483887,6.965929985046387
1700823732648019500,3.81501953125,9.30386734008789,-4.284423828125,6.362590789794922
1700823732658014700,3.8250146484375,7.151480674743652,-3.818751811981201,5.080495834350586
1700823732668033800,3.83503369140625,5.814318656921387,-4.9835309982299805,6.0633158683776855
1700823732677997800,3.844997802734375,5.488707542419434,-5.143942356109619,6.592434406280518
1700823732687921000,3.8549208984375,5.331887245178223,-4.168305397033691,6.655880928039551
1700823732697990000,3.864989990234375,5.639542102813721,-3.8175547122955322,6.325480937957764
1700823732707926000,3.874926025390625,6.0621185302734375,-3.6343982219696045,5.985504150390625
1700823732717940500,3.8849404296875,6.685808181762695,-3.420117139816284,5.130774021148682
1700823732727918300,3.89491845703125,7.2005615234375,-2.537853717803955,4.910507678985596
1700823732738210000,3.9052099609375,8.039729118347168,-1.359906554222107,5.778405666351318
1700823732748096500,3.915096435546875,7.29034423828125,-0.18315643072128296,7.2771759033203125
1700823732758048300,3.92504833984375,6.981492042541504,0.5889736413955688,9.396044731140137
1700823732768030700,3.93503076171875,7.026981830596924,-0.033518824726343155,10.395624160766602
1700823732778075000,3.945074951171875,5.813121795654297,-1.8962076902389526,10.093954086303711
1700823732788040000,3.9550400390625,4.547786235809326,-4.195838451385498,9.244012832641602
1700823732798048000,3.965048095703125,4.593276023864746,-4.838681697845459,6.5481414794921875
1700823732808045000,3.975045166015625,5.9555768966674805,-2.894589900970459,6.133944988250732
1700823732818085400,3.98508544921875,7.048529624938965,-0.9888052940368652,6.649895191192627
1700823732828156700,3.99515673828125,7.260416507720947,-0.19153612852096558,7.422025203704834
1700823732838124800,4.005124755859375,7.110779285430908,-1.212663173675537,7.726089000701904
1700823732848304400,4.015304443359375,8.935160636901855,-3.557783842086792,7.544129371643066
1700823732858210800,4.0252109375,9.715670585632324,-4.838681697845459,6.956353187561035
1700823732868077300,4.035077392578125,5.1116204261779785,-3.264493942260742,6.202179431915283
1700823732878159000,4.0451591796875,2.122459888458252,-0.3519476354122162,5.2229509353637695
1700823732888116000,4.055115966796875,2.5977089405059814,-0.3124433159828186,4.4304704666137695
1700823732898036000,4.065035888671875,4.821922302246094,-2.2685060501098633,4.563348293304443
1700823732907995100,4.0749951171875,6.5912370681762695,-2.7688941955566406,6.210559368133545
1700823732917953000,4.084953125,8.05050277709961,-2.3044190406799316,8.10317611694336
1700823732927950000,4.0949501953125,8.269572257995605,-0.9660604000091553,9.682151794433594
1700823732937926400,4.104926513671875,6.737283706665039,-0.010773907415568829,9.747992515563965
1700823732947946800,4.11494677734375,4.637568473815918,-0.5758054852485657,9.029731750488281
1700823732957967400,4.12496728515625,3.8151605129241943,-1.2282254695892334,8.572439193725586
1700823732967967700,4.1349677734375,3.733757495880127,-1.8171991109848022,7.82305383682251
1700823732977975800,4.144975830078125,3.3255462646484375,-2.5318682193756104,7.299921035766602
1700823732987970300,4.15497021484375,3.26688814163208,-3.202244758605957,7.466318130493164
1700823732998005200,4.165005126953125,3.7912182807922363,-3.0526070594787598,8.277952194213867
1700823733008034000,4.175033935546875,5.810727596282959,-1.9967641830444336,9.26915168762207
1700823733018038500,4.18503857421875,6.320692539215088,-1.1085153818130493,10.007762908935547
1700823733028055300,4.19505517578125,5.213374137878418,-0.9959878921508789,9.294290542602539
1700823733037997600,4.20499755859375,3.773261785507202,-1.114500880241394,8.182184219360352
1700823733047926800,4.2149267578125,2.695871114730835,-0.9217676520347595,8.04691219329834
1700823733057964000,4.224964111328125,3.555389642715454,-1.292868971824646,7.722497463226318
1700823733067937000,4.23493701171875,3.846285104751587,-1.8171991109848022,7.693767070770264
1700823733077952000,4.244951904296875,3.3889925479888916,-2.4432828426361084,7.830236434936523
1700823733087959000,4.254958984375,3.2632968425750732,-2.321178436279297,8.438364028930664
1700823733097934600,4.2649345703125,2.275688648223877,-1.4185645580291748,8.853757858276367
1700823733107902700,4.27490283203125,2.515108823776245,-0.9756371974945068,8.905233383178711
1700823733117904000,4.28490380859375,2.8993782997131348,-0.9780313968658447,8.640673637390137
1700823733127879000,4.29487890625,3.2345664501190186,-1.1001356840133667,8.937555313110352
1700823733137953500,4.30495361328125,3.141192674636841,-0.9911994934082031,9.016563415527344
1700823733147939800,4.31493994140625,3.3925838470458984,-1.036689281463623,8.429984092712402
1700823733157930800,4.3249306640625,4.212597846984863,-1.278503656387329,7.791929244995117
1700823733167936500,4.3349365234375,4.502296447753906,-1.1683704853057861,6.606799602508545
1700823733177938200,4.344938232421875,4.426878929138184,-1.455674648284912,5.0912699699401855
1700823733187900700,4.354900634765625,4.141968727111816,-1.600523829460144,3.001131772994995
1700823733197915400,4.364915283203125,3.046621561050415,-2.2182278633117676,1.600523829460144
1700823733207930600,4.3749306640625,0.9097966551780701,-3.5398271083831787,1.1540051698684692
1700823733217927400,4.384927490234375,-0.7314286231994629,-4.742913722991943,3.09689998626709
1700823733227954700,4.39495458984375,-3.3698389530181885,-5.149928092956543,7.137115478515625
1700823733237961700,4.404961669921875,-5.722142219543457,-4.531026840209961,12.715604782104492
1700823733248088300,4.41508837890625,-7.702147006988525,-3.4308910369873047,19.650409698486328
1700823733258114800,4.42511474609375,-16.139312744140625,-4.821922302246094,23.661895751953125
1700823733268011300,4.43501123046875,-2.120065689086914,-5.272032260894775,16.746244430541992
1700823733278082000,4.44508203125,7.268796443939209,-8.559270858764648,12.287043571472168
1700823733287981600,4.454981689453125,7.3454108238220215,-7.691372871398926,8.555679321289062
1700823733297948000,4.464947998046875,4.680664539337158,-3.728969097137451,7.909245491027832
1700823733307973400,4.474973388671875,-0.21787235140800476,-3.116053581237793,6.347028732299805
1700823733318077200,4.4850771484375,-1.8543092012405396,-5.206191539764404,6.347028732299805
1700823733328137200,4.49513720703125,-1.4065934419631958,-6.339846134185791,7.838616371154785
1700823733338172200,4.505172119140625,-0.973242998123169,-7.280767440795898,9.222464561462402
1700823733348091100,4.515091064453125,-2.589329242706299,-6.375759124755859,11.943474769592285
1700823733358008600,4.525008544921875,-2.9867665767669678,-3.9205052852630615,13.512874603271484
1700823733367953200,4.534953125,-2.0003554821014404,-3.627215623855591,12.146982192993164
1700823733377933000,4.54493310546875,-1.235408067703247,-3.665522813796997,9.904812812805176
1700823733387911200,4.5549111328125,-0.333991140127182,-3.292027235031128,8.483853340148926
1700823733397919500,4.56491943359375,0.40940847992897034,-2.8586769104003906,7.412448406219482
1700823733407973400,4.574973388671875,0.033518824726343155,-3.047818660736084,6.402095317840576
1700823733417995500,4.58499560546875,-0.37828385829925537,-3.551798105239868,5.189432144165039
1700823733428024800,4.59502490234375,-0.9900023937225342,-4.431667327880859,8.497021675109863
1700823733438154500,4.605154541015625,-1.1755530834197998,-4.046200752258301,10.229227066040039
1700823733448058600,4.61505859375,-1.193509578704834,-3.980360269546509,10.933121681213379
1700823733457996800,4.624996826171875,-1.9692308902740479,-4.618414878845215,9.642647743225098
1700823733468002300,4.635002197265625,-1.6160861253738403,-4.135983467102051,9.938331604003906
1700823733478076700,4.64507666015625,-0.828393816947937,-3.6152446269989014,9.938331604003906
1700823733488019500,4.65501953125,-0.2968810200691223,-2.96162748336792,10.089165687561035
1700823733497980700,4.664980712890625,-0.9768342971801758,-3.2106244564056396,9.746794700622559
1700823733507914200,4.674914306640625,-0.5207388401031494,-3.7840356826782227,8.552088737487793
1700823733517915600,4.68491552734375,-0.9983820915222168,-4.606443881988525,8.085219383239746
1700823733527940400,4.6949404296875,-0.4884171485900879,-5.676652431488037,7.700949668884277
1700823733537952800,4.704952880859375,-0.5841852426528931,-6.258443355560303,7.681796073913574
1700823733547956200,4.714956298828125,-1.3958195447921753,-6.2847795486450195,8.177395820617676
1700823733557938700,4.724938720703125,-1.3778630495071411,-6.995857238769531,11.659762382507324
1700823733568054800,4.7350546875,-2.6827030181884766,-5.985504150390625,10.759542465209961
1700823733578215000,4.74521484375,-2.2158336639404297,-4.405331134796143,8.89445972442627
1700823733588081000,4.755080810546875,-1.7513585090637207,-4.062960147857666,8.699332237243652
1700823733597991000,4.764990966796875,-1.4520833492279053,-4.197035789489746,8.20373249053955
1700823733608012500,4.775012451171875,-1.0426748991012573,-4.120420932769775,8.682572364807129
1700823733617951700,4.78495166015625,-1.8926163911819458,-4.278438568115234,8.216899871826172
1700823733627920000,4.794919921875,-2.1571757793426514,-4.3179426193237305,7.73087739944458
1700823733637906000,4.804906005859375,-1.8124107122421265,-4.58848762512207,7.228095054626465
1700823733647886000,4.814885986328125,-1.2066776752471924,-5.0254292488098145,7.711723804473877
1700823733657922600,4.824922607421875,-1.5825673341751099,-5.166687488555908,8.616731643676758
1700823733667959300,4.834959228515625,-1.7968484163284302,-5.167884349822998,9.400833129882812
1700823733677941200,4.844941162109375,-1.866280198097229,-5.190629482269287,9.489418029785156
1700823733687931600,4.854931640625,-2.61087703704834,-5.725733280181885,9.410409927368164
1700823733698036200,4.8650361328125,-2.541445016860962,-5.3115363121032715,8.978256225585938
1700823733708045600,4.875045654296875,-2.5055320262908936,-5.582081317901611,7.952341079711914
1700823733717988400,4.88498828125,-2.03507137298584,-5.336675643920898,8.08402156829834
1700823733727995600,4.89499560546875,-2.212242364883423,-5.656301498413086,8.431180953979492
1700823733737999400,4.904999267578125,-3.0346505641937256,-5.139153957366943,10.339360237121582
1700823733748058600,4.91505859375,-4.015076160430908,-4.106055736541748,11.976993560791016
1700823733758079200,4.925079345703125,-3.869029998779297,-3.7888240814208984,12.36485481262207
1700823733768019200,4.935019287109375,-3.5494039058685303,-4.06894588470459,11.954249382019043
1700823733777974500,4.944974609375,-2.5306711196899414,-4.763264179229736,7.156269073486328
1700823733787954700,4.95495458984375,1.5047557353973389,-3.2166099548339844,2.5917234420776367
1700823733797976300,4.964976318359375,1.0330979824066162,-2.912546396255493,3.8570590019226074
1700823733807979300,4.974979248046875,-2.3127987384796143,-2.7760767936706543,7.0341644287109375
1700823733818018600,4.9850185546875,-2.364274263381958,-3.377021551132202,7.327454090118408
1700823733828041700,4.995041748046875,-1.4269442558288574,-4.288015365600586,7.314286231994629
1700823733838038300,5.005038330078125,-0.9313444495201111,-5.649118900299072,8.038532257080078
1700823733847987200,5.0149873046875,-1.499967336654663,-5.151124954223633,9.558850288391113
1700823733858316000,5.02531591796875,-3.4093432426452637,-2.98437237739563,8.652645111083984
1700823733868126500,5.03512646484375,-1.7633295059204102,-3.6954503059387207,7.382521152496338
1700823733878056200,5.04505615234375,-1.8495208024978638,-3.7696704864501953,8.35456657409668
1700823733888009200,5.05500927734375,-1.5286977291107178,-4.042609691619873,9.100360870361328
1700823733897977000,5.06497705078125,-1.985990285873413,-4.9619832038879395,8.7484130859375
1700823733907952000,5.0749521484375,-2.4384944438934326,-5.529408931732178,8.505401611328125
1700823733918472400,5.085472412109375,-2.1380221843719482,-5.318718910217285,8.753201484680176
1700823733928245800,5.095245849609375,-1.4724340438842773,-4.908113479614258,8.888473510742188
1700823733938075000,5.105074951171875,-1.3646949529647827,-4.914099216461182,8.74721622467041
1700823733948022500,5.1150224609375,-1.8148049116134644,-4.388571739196777,8.926780700683594
1700823733958048800,5.125048828125,-1.6328455209732056,-4.167108058929443,8.80467700958252
1700823733968000300,5.135000244140625,-1.6915035247802734,-4.364629745483398,8.736441612243652
1700823733977983700,5.144983642578125,-1.8255788087844849,-4.135983467102051,9.05367374420166
1700823733987969800,5.1549697265625,-2.2421698570251465,-3.663128614425659,8.200140953063965
1700823733997958000,5.1649580078125,-2.4241292476654053,-3.2082302570343018,8.398859977722168
1700823734007937000,5.17493701171875,-1.4472949504852295,-4.041412353515625,8.966285705566406
1700823734017943600,5.184943603515625,-1.5526398420333862,-4.188655853271484,9.247604370117188
1700823734027957800,5.194957763671875,-2.0410568714141846,-3.466804027557373,8.882488250732422
1700823734037963300,5.20496337890625,-1.8818424940109253,-2.9927520751953125,8.250418663024902
1700823734047968300,5.21496826171875,-1.768117904663086,-3.2525229454040527,7.12035608291626
1700823734057955000,5.224955078125,-1.404199242591858,-3.8582561016082764,7.0557122230529785
1700823734067962000,5.234962158203125,-1.0522516965866089,-3.8079779148101807,8.391676902770996
1700823734078050600,5.245050537109375,-1.316810965538025,-3.975571870803833,10.056844711303711
1700823734088018700,5.255018798828125,-1.9704279899597168,-4.991910457611084,9.495404243469238
1700823734098367000,5.265366943359375,-1.644816517829895,-5.570110321044922,9.354146003723145
1700823734108184800,5.275184814453125,-1.7178397178649902,-5.078101634979248,9.452308654785156
1700823734118063900,5.28506396484375,-1.8830395936965942,-4.746504783630371,9.220070838928223
1700823734127972000,5.29497216796875,-1.5897499322891235,-4.387374401092529,8.506598472595215
1700823734137929500,5.304929443359375,-1.1204863786697388,-4.216189384460449,7.45913553237915
1700823734148103700,5.315103759765625,-1.0019733905792236,-4.517858505249023,6.428431510925293
1700823734158125300,5.325125244140625,0.20111294090747833,-5.03021764755249,6.244078159332275
1700823734168037000,5.335037109375,-0.07062894850969315,-5.523423194885254,5.917269706726074
1700823734178183200,5.34518310546875,-1.1121066808700562,-5.2014031410217285,7.128735542297363
1700823734188099600,5.355099609375,-1.9548656940460205,-4.357447147369385,9.509769439697266
1700823734198014200,5.36501416015625,-2.0482394695281982,-4.050989151000977,11.057621002197266
1700823734208267500,5.375267578125,-2.718616008758545,-4.279635429382324,11.724405288696289
1700823734218229800,5.385229736328125,-2.40736985206604,-4.6291890144348145,11.603498458862305
1700823734228115000,5.395114990234375,-2.1787235736846924,-5.540182590484619,10.259154319763184
1700823734238142000,5.405141845703125,-1.9177556037902832,-5.501875400543213,9.512163162231445
1700823734248191500,5.41519140625,-0.1496376097202301,-4.680664539337158,8.722076416015625
1700823734258120700,5.42512060546875,0.395043283700943,-4.260481834411621,7.803900241851807
1700823734268069400,5.4350693359375,0.4944026470184326,-4.760869979858398,7.297526836395264
1700823734278022700,5.445022705078125,-0.0694318488240242,-5.440823554992676,7.091625213623047
1700823734288030500,5.455030517578125,-0.7026981711387634,-6.655880928039551,5.9519853591918945
1700823734298023200,5.465023193359375,-1.6208745241165161,-6.603208065032959,7.134721279144287
1700823734308076500,5.47507666015625,-1.698686122894287,-5.8885393142700195,7.799111843109131
1700823734318068700,5.48506884765625,-0.8164227604866028,-5.207388877868652,7.601590633392334
1700823734328054000,5.495053955078125,0.19871874153614044,-5.56053352355957,4.60045862197876
1700823734338044000,5.5050439453125,0.7410054206848145,-4.462791919708252,4.619612216949463
1700823734348042500,5.51504248046875,0.5506663918495178,-3.403357744216919,13.438653945922852
1700823734358193200,5.525193115234375,-3.2549171447753906,-5.538985729217529,9.872490882873535
1700823734368088600,5.535088623046875,-2.960430383682251,-5.330689907073975,10.675745010375977
1700823734378038800,5.545038818359375,-1.2006921768188477,-4.461595058441162,10.542867660522461
1700823734388028400,5.5550283203125,-1.3335703611373901,-4.485537052154541,9.050082206726074
1700823734398059800,5.565059814453125,-1.169567584991455,-4.072536945343018,7.252037048339844
1700823734408380400,5.57538037109375,-0.365115761756897,-3.155557870864868,6.467936038970947
1700823734418199600,5.585199462890625,-0.7781155705451965,-3.2094273567199707,6.077681064605713
1700823734428117800,5.59511767578125,-1.3611036539077759,-3.4560301303863525,6.800729751586914
1700823734438033400,5.605033447265625,-0.568622887134552,-3.116053581237793,8.99621295928955
1700823734448027100,5.615027099609375,-1.0450690984725952,-2.6443958282470703,11.373655319213867
1700823734458047000,5.625046875,-2.632424831390381,-0.3447650372982025,13.593080520629883
1700823734468105000,5.63510498046875,-2.248155355453491,-1.1073182821273804,11.950657844543457
1700823734478165000,5.6451650390625,-1.237802267074585,-2.516305923461914,8.864531517028809
1700823734488164600,5.65516455078125,-0.0933738648891449,-2.7928361892700195,8.166622161865234
1700823734498087700,5.665087646484375,0.5267243981361389,-3.1699230670928955,8.254010200500488
1700823734508249900,5.675249755859375,0.08738835901021957,-3.8510735034942627,8.030152320861816
1700823734518090000,5.685090087890625,0.629675030708313,-5.876567840576172,6.979097843170166
1700823734528033000,5.695032958984375,0.0586579404771328,-7.439981937408447,6.672640323638916
1700823734538084600,5.705084716796875,-0.10055647045373917,-6.716932773590088,9.361329078674316
1700823734548063200,5.715063232421875,-0.5518634915351868,-5.374982833862305,12.301408767700195
1700823734558179000,5.725178955078125,-5.228936672210693,-8.043320655822754,8.675390243530273
1700823734568090600,5.735090576171875,-2.3319525718688965,-12.384008407592773,2.75812029838562
1700823734578165200,5.745165283203125,2.165555477142334,-13.792996406555176,0.181959331035614
1700823734588237600,5.755237548828125,3.286041736602783,-12.120646476745605,1.7357962131500244
1700823734598258000,5.7652578125,1.623268723487854,-9.718064308166504,4.9164934158325195
1700823734608119300,5.775119384765625,-1.335964560508728,-7.993042469024658,8.153453826904297
1700823734618142200,5.78514208984375,-2.24935245513916,-7.60637903213501,9.452308654785156
1700823734628081700,5.79508154296875,0.7015010714530945,-7.062894821166992,10.436325073242188
1700823734638069800,5.80506982421875,1.8722656965255737,-6.697779178619385,10.955866813659668
1700823734648045800,5.8150458984375,0.11372458189725876,-8.465897560119629,8.400056838989258
1700823734658033400,5.825033447265625,-0.0071826050989329815,-10.292673110961914,6.877344608306885
1700823734668024300,5.8350244140625,-0.8152256608009338,-9.427168846130371,9.028534889221191
1700823734678045200,5.845045166015625,-1.0402805805206299,-8.02656078338623,10.182539939880371
1700823734688068000,5.855068115234375,1.9596540927886963,-6.7025675773620605,10.432733535766602
1700823734698066400,5.86506640625,2.248155355453491,-5.7760114669799805,7.924807548522949
1700823734708081200,5.8750810546875,-0.7386112213134766,-5.163095951080322,5.5114521980285645
1700823734718054100,5.88505419921875,-2.3235726356506348,-2.647987127304077,4.929661273956299
1700823734728050200,5.89505029296875,-2.049436569213867,-0.7493851184844971,6.203376770019531
1700823734738066400,5.90506640625,-1.1743559837341309,-0.5817909836769104,8.53413200378418
1700823734747992300,5.914992431640625,-1.0091559886932373,-4.481945514678955,6.889315605163574
1700823734758179600,5.9251796875,-1.1109095811843872,-6.185420036315918,6.430825710296631
1700823734768094700,5.9350947265625,-0.10654197633266449,-6.205770969390869,7.15507173538208
1700823734778052400,5.94505224609375,0.9900023937225342,-6.2835822105407715,7.007828235626221
1700823734787953700,5.95495361328125,0.44771572947502136,-6.932411193847656,7.022193431854248
1700823734797921800,5.964921875,0.5446808934211731,-7.092822551727295,7.186196327209473
1700823734807881000,5.974880859375,0.6009446382522583,-6.9707183837890625,7.402871608734131
1700823734817883400,5.98488330078125,0.40222588181495667,-6.831854343414307,7.429207801818848
1700823734827989800,5.99498974609375,0.27892449498176575,-6.746860504150391,7.457938194274902
1700823734837968000,6.0049677734375,0.37828385829925537,-6.716932773590088,7.438784599304199
1700823734847924500,6.014924560546875,0.1843535304069519,-6.672640323638916,7.223306655883789
1700823734857946000,6.024946044921875,-0.22864626348018646,-6.599617004394531,7.082048416137695
1700823734867914500,6.03491455078125,-0.2059013396501541,-6.551733016967773,7.0317702293396
1700823734877921800,6.044921875,-0.13766659796237946,-6.563704013824463,7.117961883544922
1700823734888001800,6.055001708984375,-0.03950432687997818,-6.737283706665039,7.281964302062988
1700823734897973500,6.064973388671875,0.03950432687997818,-6.967126846313477,7.569268703460693
1700823734908312800,6.075312744140625,0.2932897210121155,-7.164648532867432,7.751227855682373
1700823734919052800,6.086052734375,0.5602431893348694,-7.181407928466797,7.668628215789795
1700823734928513500,6.095513427734375,0.5973533391952515,-7.023390769958496,7.47110652923584
1700823734938237700,6.10523779296875,0.395043283700943,-6.8342485427856445,7.271190643310547
1700823734948101400,6.115101318359375,0.24181437492370605,-6.649895191192627,7.053318023681641
1700823734958031000,6.125031005859375,0.07541735470294952,-6.54574728012085,6.884527206420898
1700823734967981600,6.134981689453125,-0.0694318488240242,-6.452373504638672,6.904877662658691
1700823734977985800,6.14498583984375,0.12090718746185303,-6.3961100578308105,7.2352776527404785
1700823734987957500,6.15495751953125,0.24779987335205078,-6.433219909667969,7.3202714920043945
1700823734998088700,6.165088623046875,0.5327098965644836,-5.900510311126709,6.999448776245117
1700823735008070400,6.1750703125,0.6596025824546814,-6.051344871520996,6.655880928039551
1700823735018059300,6.185059326171875,-0.08259996026754379,-6.269217014312744,7.0808515548706055
1700823735028122600,6.19512255859375,0.033518824726343155,-5.518634796142578,7.06409215927124
1700823735038064400,6.205064453125,0.5506663918495178,-4.179079055786133,7.16584587097168
1700823735048129500,6.215129638671875,1.0187327861785889,-4.047398090362549,7.615955829620361
1700823735058026800,6.22502685546875,0.5339069962501526,-6.1949968338012695,7.716512203216553
1700823735068001500,6.23500146484375,-0.4944026470184326,-7.808688640594482,7.908048152923584
1700823735078357800,6.245357666015625,0.3974374830722809,-8.543708801269531,8.214506149291992
1700823735088122400,6.255122314453125,0.8954314589500427,-7.740454196929932,8.523358345031738
1700823735098034200,6.2650341796875,-0.3280056416988373,-5.48272180557251,8.463502883911133
1700823735108018700,6.275018798828125,-1.191115379333496,-3.485957622528076,8.866926193237305
1700823735117980000,6.28497998046875,-1.3455413579940796,-3.734954595565796,9.14585018157959
1700823735127959300,6.294959228515625,-1.50355863571167,-6.393715858459473,8.26239013671875
1700823735137961700,6.304961669921875,0.020350715145468712,-7.782352447509766,7.762001991271973
1700823735147963000,6.314962890625,1.3084312677383423,-8.881291389465332,6.775590896606445
1700823735157935900,6.324935791015625,1.4389152526855469,-8.40843677520752,6.561309814453125
1700823735167954400,6.334954345703125,1.523909330368042,-6.66904878616333,7.038952827453613
1700823735177960700,6.344960693359375,0.608127236366272,-4.392162799835205,7.930793285369873
1700823735187978200,6.354978271484375,-1.3024457693099976,-2.2852654457092285,8.541314125061035
1700823735197935600,6.364935546875,-1.581370234489441,-1.095347285270691,8.340201377868652
1700823735207956700,6.374956787109375,-1.0522516965866089,-0.090979665517807,8.552088737487793
1700823735217969000,6.384968994140625,-1.647210717201233,-1.2078747749328613,8.220491409301758
1700823735227975400,6.394975341796875,-0.49320554733276367,-3.466804027557373,7.773972988128662
1700823735237983700,6.404983642578125,0.4513070285320282,-6.508637428283691,7.353790283203125
1700823735248027400,6.41502734375,2.474407434463501,-8.309077262878418,7.564480304718018
1700823735258013700,6.425013671875,4.746504783630371,-7.638700485229492,8.565256118774414
1700823735267989800,6.43498974609375,2.4576480388641357,-6.852205276489258,8.87171459197998
1700823735278050800,6.44505078125,0.2669534981250763,-6.0872578620910645,8.886079788208008
1700823735287998500,6.45499853515625,-0.7386112213134766,-4.728548526763916,9.301473617553711
1700823735297971200,6.46497119140625,-0.05626374110579491,-5.331887245178223,9.062053680419922
1700823735307958000,6.4749580078125,0.3627215623855591,-5.8203043937683105,8.769960403442383
1700823735317945600,6.484945556640625,-0.26336219906806946,-5.652710437774658,8.814253807067871
1700823735327955700,6.494955810546875,-0.7433996200561523,-4.768052577972412,9.185355186462402
1700823735337951000,6.504950927734375,0.6356605291366577,-4.772840976715088,8.65623664855957
1700823735347959000,6.514958984375,2.122459888458252,-4.717774391174316,8.225279808044434
1700823735358041900,6.525041748046875,2.054224967956543,-4.587290287017822,8.153453826904297
1700823735368033500,6.535033447265625,1.1240776777267456,-5.112817764282227,8.523358345031738
1700823735378047700,6.5450478515625,-0.243011474609375,-6.165069580078125,8.916007041931152
1700823735388065800,6.555065673828125,-1.2306196689605713,-6.575675010681152,9.17697525024414
1700823735398047000,6.565046875,-1.8339585065841675,-7.06409215927124,8.146271705627441
1700823735408052500,6.575052490234375,-1.5526398420333862,-6.822277545928955,6.338648796081543
1700823735418023200,6.585023193359375,-1.3012486696243286,-5.319916248321533,5.9304375648498535
1700823735428201700,6.59520166015625,-1.5143325328826904,-3.3650505542755127,6.873753070831299
1700823735438099200,6.60509912109375,-2.321178436279297,-2.5462334156036377,7.803900241851807
1700823735448110000,6.615110107421875,-3.3243491649627686,-1.4089876413345337,9.247604370117188
1700823735458083000,6.6250830078125,-4.751293182373047,-4.219780445098877,9.66299819946289
1700823735468095500,6.635095458984375,0.6165069341659546,-10.960655212402344,8.638279914855957
1700823735478095400,6.645095458984375,3.5266590118408203,-3.529053211212158,11.820174217224121
1700823735487980000,6.65497998046875,-4.545392036437988,-4.448426723480225,9.762357711791992
1700823735497975600,6.6649755859375,-5.718550682067871,-6.931213855743408,7.42561674118042
1700823735507937300,6.674937255859375,-2.5785553455352783,-7.966706275939941,5.999869346618652
1700823735517940200,6.684940185546875,-0.6560112833976746,-8.7484130859375,5.673060894012451
1700823735527930000,6.69493017578125,1.5406688451766968,-9.399636268615723,5.692214488983154
1700823735537981000,6.70498095703125,5.279214859008789,-6.766014099121094,7.814674377441406
1700823735547919600,6.714919677734375,6.540958881378174,-4.612429618835449,10.672154426574707
1700823735557918700,6.724918701171875,3.003525972366333,-4.042609691619873,10.99656867980957
1700823735567875300,6.734875244140625,-0.304063618183136,-3.336320161819458,9.818621635437012
1700823735577874700,6.744874755859375,-1.867477297782898,-3.6355953216552734,8.364143371582031
1700823735587879400,6.75487939453125,-2.477998733520508,-4.46518611907959,7.636306285858154
1700823735597874200,6.764874267578125,-1.07379949092865,-3.824737310409546,8.889671325683594
1700823735607861500,6.774861572265625,-0.8978256583213806,-3.7888240814208984,9.769539833068848
1700823735617906000,6.784906005859375,0.40462008118629456,-4.14915132522583,9.44991397857666
1700823735627884300,6.79488427734375,0.009576806798577309,-5.0469770431518555,9.181763648986816
1700823735637885700,6.8048857421875,-0.9636662006378174,-6.033388137817383,9.05487060546875
1700823735648135000,6.815135009765625,-1.3108254671096802,-7.117961883544922,8.53413200378418
1700823735658027500,6.825027587890625,-2.313995838165283,-7.053318023681641,8.316259384155273
1700823735667968800,6.83496875,-1.9033904075622559,-5.488707542419434,8.271966934204102
1700823735677927000,6.844927001953125,-1.3515268564224243,-4.383783340454102,8.250418663024902
1700823735687895800,6.854895751953125,-0.9696516990661621,-3.09689998626709,8.434772491455078
1700823735697927000,6.864927001953125,-0.5398924946784973,-2.2685060501098633,8.558073997497559
1700823735708994600,6.87599462890625,0.10893617570400238,-2.890998601913452,8.2312650680542
1700823735718456800,6.885456787109375,0.3411737382411957,-3.3877954483032227,8.329427719116211
1700823735728153300,6.8951533203125,-0.4704606235027313,-5.021838188171387,8.271966934204102
1700823735738066700,6.905066650390625,-0.2214636504650116,-6.475118637084961,8.449137687683105
1700823735747977200,6.914977294921875,-0.608127236366272,-7.152677536010742,8.78073501586914
1700823735757945000,6.924945068359375,-1.8279730081558228,-6.658275127410889,9.3828763961792
1700823735767939000,6.93493896484375,-2.24935245513916,-5.726930618286133,9.928754806518555
1700823735777961500,6.94496142578125,-2.0374655723571777,-5.239710330963135,9.90122127532959
1700823735787936300,6.954936279296875,-1.9596540927886963,-5.871779441833496,8.494627952575684
1700823735797983200,6.964983154296875,-0.363918662071228,-7.429207801818848,6.797138690948486
1700823735808131600,6.975131591796875,-0.37828385829925537,-8.412027359008789,6.720524311065674
1700823735818007800,6.9850078125,-0.48602294921875,-8.591592788696289,7.419631004333496
1700823735827931400,6.994931396484375,0.4991910457611084,-7.844601631164551,8.333019256591797
1700823735837902600,7.004902587890625,2.4851813316345215,-7.682993412017822,8.579621315002441
1700823735847929900,7.014929931640625,2.855085611343384,-6.517016887664795,9.17697525024414
1700823735857910000,7.024909912109375,0.9074024558067322,-5.049371242523193,9.642647743225098
1700823735867865300,7.034865234375,-1.0821791887283325,-4.479551315307617,9.769539833068848
1700823735877842200,7.04484228515625,0.04908113554120064,-3.444059133529663,10.087968826293945
1700823735887859200,7.054859130859375,2.7305870056152344,0.33758243918418884,11.274295806884766
1700823735897923000,7.064923095703125,0.4812345504760742,1.4449007511138916,11.003750801086426
1700823735907885600,7.074885498046875,-4.9152960777282715,-5.38096809387207,5.396530628204346
1700823735917898800,7.084898681640625,-5.445611953735352,-5.6455278396606445,5.714959621429443
1700823735927937800,7.094937744140625,-2.0805611610412598,-5.134365558624268,7.139509677886963
1700823735938015500,7.105015380859375,1.1109095811843872,-4.900930881500244,8.378508567810059
1700823735947994600,7.11499462890625,2.45285964012146,-5.504269599914551,8.165425300598145
1700823735957982500,7.124982421875,0.1999158412218094,-6.451176643371582,7.085639953613281
1700823735967920000,7.134920166015625,-0.9133879542350769,-5.980715751647949,7.0353617668151855
1700823735977966000,7.144966064453125,-1.1420341730117798,-5.493495941162109,7.744045257568359
1700823735988005000,7.155005126953125,-0.6775590777397156,-4.953603267669678,8.649053573608398
1700823735997997600,7.16499755859375,-0.015562310814857483,-4.859032154083252,9.133879661560059
1700823736008011300,7.17501123046875,0.3878606855869293,-5.102043628692627,9.002198219299316
1700823736017954600,7.18495458984375,0.4118026793003082,-5.242104530334473,8.582015991210938
1700823736027949300,7.19494921875,-0.42616790533065796,-5.92325496673584,7.861361503601074
1700823736037973800,7.204973876953125,-0.7254431247711182,-5.947196960449219,7.8781208992004395
1700823736047980800,7.214980712890625,-0.5291185975074768,-5.870582580566406,8.212111473083496
1700823736057995000,7.2249951171875,-0.021547814831137657,-6.206967830657959,8.244433403015137
1700823736068088600,7.235088623046875,-0.07661445438861847,-6.291962146759033,8.303091049194336
1700823736078034700,7.24503466796875,-0.30526071786880493,-6.09204626083374,8.526948928833008
1700823736088006000,7.255005859375,-0.569819986820221,-6.032191276550293,8.364143371582031
1700823736097973000,7.264972900390625,0.48243165016174316,-0.9516952037811279,9.431957244873047
1700823736108228400,7.275228271484375,2.363077163696289,-4.393360137939453,5.989095687866211
1700823736118054100,7.28505419921875,-1.5729905366897583,-7.1670427322387695,6.776787757873535
1700823736128026600,7.295026611328125,-3.554192304611206,-8.310274124145508,7.416039943695068
1700823736138013200,7.30501318359375,-2.448071241378784,-6.609193801879883,9.072827339172363
1700823736148008700,7.3150087890625,2.22660756111145,-5.653907299041748,8.89685344696045
1700823736158001000,7.3250009765625,2.208651065826416,-5.477933406829834,8.08282470703125
1700823736167935500,7.334935546875,0.06344634294509888,-4.112041473388672,7.660248279571533
1700823736177948700,7.34494873046875,-3.135207176208496,-3.891774892807007,7.7416510581970215
1700823736187955500,7.35495556640625,-4.079719543457031,-3.886986494064331,7.8314337730407715
1700823736197963800,7.3649638671875,-3.09689998626709,-5.137956619262695,7.8278422355651855
1700823736207997000,7.374996826171875,-1.2641384601593018,-8.067262649536133,7.241262912750244
1700823736217951500,7.384951416015625,2.6360161304473877,-10.08318042755127,8.851364135742188
1700823736227904300,7.394904296875,0.8535329103469849,-9.520543098449707,7.961917877197266
1700823736237941500,7.40494140625,0.3196259140968323,-7.094019412994385,8.395268440246582
1700823736247955200,7.414955078125,0.6775590777397156,-5.342660903930664,8.507795333862305
1700823736257987600,7.424987548828125,-0.8607155084609985,-4.954800605773926,7.729680061340332
1700823736267939300,7.434939208984375,-0.4967968463897705,-4.3622355461120605,7.814674377441406
1700823736277983700,7.444983642578125,-1.0031704902648926,-3.8355112075805664,7.967903137207031
1700823736288001800,7.455001708984375,-0.993593692779541,-3.4320881366729736,7.872135162353516
1700823736298007300,7.46500732421875,-0.9169792532920837,-3.8977603912353516,7.524975776672363
1700823736308367600,7.47536767578125,-1.459265947341919,-4.720168590545654,7.061697959899902
1700823736318134800,7.485134765625,-1.2545616626739502,-5.69700288772583,7.3418192863464355
1700823736328053500,7.495053466796875,-0.17477671802043915,-6.036979675292969,8.634688377380371
1700823736338014700,7.5050146484375,0.13527239859104156,-6.464344501495361,8.89685344696045
1700823736347989800,7.51498974609375,-1.0414776802062988,-6.106411457061768,8.310274124145508
1700823736358001400,7.52500146484375,-1.7525556087493896,-5.371391296386719,7.29034423828125
1700823736367967700,7.5349677734375,-0.9876081943511963,-5.149928092956543,7.095216751098633
1700823736377995300,7.544995361328125,-0.05506663769483566,-5.509057998657227,7.412448406219482
1700823736387999700,7.554999755859375,0.690727174282074,-6.302735805511475,8.197746276855469
1700823736397958400,7.56495849609375,0.3172317147254944,-6.963535785675049,8.718485832214355
1700823736407958300,7.574958251953125,-0.46327802538871765,-7.096413612365723,8.470685958862305
1700823736417955000,7.584955078125,-1.434126853942871,-6.175843238830566,8.68017864227295
1700823736427940600,7.594940673828125,-1.294066071510315,-5.461174011230469,8.159439086914062
1700823736437943300,7.604943359375,0.002394201699644327,-5.072116374969482,7.916428089141846
1700823736447898000,7.614898193359375,1.7884687185287476,-3.1759085655212402,7.902062892913818
1700823736457911600,7.62491162109375,1.502361536026001,-1.7753005027770996,7.8098859786987305
1700823736467917800,7.634917724609375,-0.9097966551780701,-0.10773907601833344,9.745597839355469
1700823736477956900,7.644956787109375,-2.5294740200042725,-1.2030863761901855,9.65222454071045
1700823736487983400,7.6549833984375,-2.316390037536621,-4.966771602630615,8.105569839477539
1700823736497982700,7.664982666015625,0.12210428714752197,-9.26915168762207,6.314706802368164
1700823736507993900,7.674993896484375,2.513911724090576,-10.85171890258789,6.281188011169434
1700823736518005000,7.6850048828125,1.8854337930679321,-8.480262756347656,8.644265174865723
1700823736528002000,7.695001953125,-1.4317326545715332,-3.8821980953216553,10.74876880645752
1700823736538014000,7.705013916015625,-1.0307037830352783,-2.6013002395629883,10.911574363708496
1700823736548011000,7.715010986328125,-1.5478514432907104,-1.7980455160140991,11.018115997314453
1700823736557997600,7.72499755859375,-1.1839327812194824,-2.167949676513672,9.989806175231934
1700823736568156200,7.73515625,-0.3315969407558441,-2.9293057918548584,8.65623664855957
1700823736578123500,7.74512353515625,1.0534487962722778,-4.571728229522705,7.6997528076171875
1700823736587998200,7.754998291015625,1.01753568649292,-2.144007682800293,11.061211585998535
1700823736597984800,7.76498486328125,-2.8395233154296875,-4.795586109161377,12.127828598022461
1700823736607992800,7.774992919921875,6.666654586791992,-6.028599739074707,10.975020408630371
1700823736617994000,7.784993896484375,5.810727596282959,-5.681440830230713,10.500968933105469
1700823736628003800,7.79500390625,3.1483752727508545,-5.208585739135742,10.409989356994629
1700823736637987000,7.804987060546875,0.6607996821403503,-4.511873245239258,9.229647636413574
1700823736647949600,7.814949462890625,-1.404199242591858,-5.195417881011963,6.390124320983887
1700823736657977900,7.824977783203125,-2.229001760482788,-6.588842868804932,3.957615375518799
1700823736667998500,7.83499853515625,-2.9077579975128174,-6.05852746963501,3.598485231399536
1700823736678006800,7.8450068359375,-4.061763286590576,-4.619612216949463,4.126406669616699
1700823736688011800,7.85501171875,-3.5482068061828613,-3.4344823360443115,5.282805919647217
1700823736697964500,7.864964599609375,-2.3271639347076416,-1.8794482946395874,7.332242488861084
1700823736707969300,7.87496923828125,0.011971008032560349,-2.013523578643799,8.868123054504395
1700823736718010000,7.885010009765625,1.646013617515564,-2.876633405685425,10.109517097473145
1700823736727959000,7.894958984375,2.9544448852539062,-3.068169593811035,11.0300874710083
1700823736737969400,7.904969482421875,3.8079779148101807,-3.0849289894104004,10.90558910369873
1700823736747924200,7.91492431640625,3.7169981002807617,-2.889801502227783,10.44350814819336
1700823736757990700,7.92499072265625,2.9089550971984863,-3.0621838569641113,9.90241813659668
1700823736768019200,7.935019287109375,0.730231523513794,-3.2525229454040527,9.785101890563965
1700823736778015200,7.94501513671875,-2.03507137298584,-3.1459810733795166,9.794678688049316
1700823736788009000,7.955009033203125,-3.2178070545196533,-2.979583978652954,9.498994827270508
1700823736798091000,7.965091064453125,-2.9927520751953125,-3.818751811981201,8.99621295928955
1700823736808070400,7.9750703125,-1.7058687210083008,-4.681861400604248,8.564059257507324
1700823736818045200,7.985045166015625,-0.5015852451324463,-4.862623691558838,9.11233139038086
1700823736828391700,7.9953916015625,1.0965443849563599,-4.8494553565979,10.111910820007324
1700823736838953200,8.005953125,2.7281928062438965,-3.5063083171844482,11.14620590209961
1700823736848733700,8.015733642578125,1.6412252187728882,-2.676717519760132,11.043255805969238
1700823736858329900,8.025329833984374,0.6212953329086304,-1.6424223184585571,10.619482040405273
1700823736868100900,8.035100830078125,-0.24899697303771973,-1.2282254695892334,10.27591323852539
1700823736878011000,8.045010986328125,-1.0749965906143188,-2.2469582557678223,9.649829864501953
1700823736887992000,8.054991943359376,-0.9852139949798584,-4.0545806884765625,9.058462142944336
1700823736897952500,8.064952392578125,1.6292542219161987,-5.206191539764404,8.371326446533203
1700823736907900200,8.074900146484374,2.0195090770721436,-4.247313976287842,8.394071578979492
1700823736917916200,8.084916259765626,1.1839327812194824,-2.737769603729248,8.42040729522705
1700823736927894500,8.09489453125,0.6476315855979919,-2.695871114730835,8.105569839477539
1700823736937905200,8.1049052734375,0.17836803197860718,-2.5043349266052246,7.860164165496826
1700823736947997200,8.1149970703125,-1.522712230682373,-2.6420016288757324,8.232462882995605
1700823736957971000,8.124970947265625,-1.6053122282028198,-3.0119056701660156,8.598775863647461
1700823736968223000,8.135222900390625,-1.403002142906189,-3.2632968425750732,9.308655738830566
1700823736978086100,8.145086181640625,-1.3922282457351685,-3.952826976776123,9.926360130310059
1700823736988017400,8.155017333984375,-0.889445960521698,-4.048594951629639,10.733205795288086
1700823736997968000,8.1649677734375,0.1412578970193863,-3.2369606494903564,11.772290229797363
1700823737007913500,8.17491357421875,1.4856021404266357,-2.3367409706115723,12.163742065429688
1700823737018016800,8.185016845703124,1.6615760326385498,-1.7896658182144165,11.70046329498291
1700823737028049000,8.195048828125,0.8475474119186401,-2.313995838165283,10.439916610717773
1700823737037976800,8.204976806640625,0.9648633003234863,-2.894589900970459,8.916007041931152
1700823737047985000,8.21498486328125,2.0925323963165283,-3.624821424484253,7.578845500946045
1700823737057997600,8.22499755859375,2.0398597717285156,-2.9101521968841553,7.5848307609558105
1700823737067940400,8.2349404296875,0.3519476354122162,-2.3319525718688965,8.554482460021973
1700823737077955000,8.244955078125,-1.3682862520217896,-0.9564836025238037,10.437521934509277
1700823737088018400,8.255018310546875,-1.9788076877593994,-0.9085995554924011,12.161347389221191
1700823737097993200,8.2649931640625,-1.557428240776062,-1.158793568611145,13.250709533691406
1700823737108188200,8.275188232421876,-1.1001356840133667,-0.333991140127182,13.405135154724121
1700823737118028000,8.285028076171875,-1.5071499347686768,-0.44412440061569214,12.576741218566895
1700823737128050400,8.295050537109375,-1.5263035297393799,-1.890222191810608,11.05642318725586
1700823737138131700,8.305131591796876,-0.09457096457481384,-3.2094273567199707,9.48462963104248
1700823737148085000,8.3150849609375,0.10055647045373917,-2.8610711097717285,7.152677536010742
1700823737157991400,8.324991455078125,-0.5841852426528931,-1.6364368200302124,7.564480304718018
1700823737167990800,8.33499072265625,-0.040701430290937424,-1.316810965538025,8.461109161376953
1700823737177964300,8.34496435546875,2.6156654357910156,-0.5578489899635315,9.983820915222168
1700823737187922200,8.354922119140625,2.894589900970459,-1.0582371950149536,10.663774490356445
1700823737197872600,8.36487255859375,1.192312479019165,-2.191891670227051,11.034875869750977
1700823737208120800,8.375120849609376,-1.3778630495071411,-3.400963544845581,10.827776908874512
1700823737218031400,8.38503125,-3.1531636714935303,-2.0853497982025146,10.642226219177246
1700823737227942100,8.394942138671874,-2.8167781829833984,-3.0095114707946777,10.753557205200195
1700823737237953000,8.404953125,-2.831143617630005,-2.869450807571411,10.584765434265137
1700823737247886600,8.414886474609375,-2.1296424865722656,-2.406172752380371,9.453505516052246
1700823737258015700,8.425015625,-0.645237386226654,-1.780089020729065,9.093177795410156
1700823737267929300,8.434929443359374,0.6045359373092651,-0.38067805767059326,9.75278091430664
1700823737277934600,8.4449345703125,0.6943184733390808,0.669179379940033,10.122684478759766
1700823737289790700,8.456790771484375,0.5961562395095825,-0.8655039072036743,10.281899452209473
1700823737298843400,8.465843505859375,-0.09696517139673233,0.2059013396501541,10.885237693786621
1700823737308450300,8.4754501953125,-0.6476315855979919,-1.413776159286499,10.985794067382812
1700823737318183200,8.48518310546875,-1.0582371950149536,-2.250549554824829,10.90558910369873
1700823737328001000,8.4950009765625,-0.27653029561042786,-2.6839001178741455,10.111910820007324
1700823737337969400,8.504969482421876,-0.8343793153762817,-2.403778553009033,8.676587104797363
1700823737347896300,8.514896240234375,-0.48722004890441895,-1.8483237028121948,7.467514991760254
1700823737357962800,8.524962646484376,-0.5303156971931458,-0.8379706144332886,7.50462532043457
1700823737367969800,8.5349697265625,-1.6711528301239014,-0.970848798751831,7.523778915405273
1700823737377898500,8.5448984375,-1.4173674583435059,0.1975216418504715,8.450334548950195
1700823737387879200,8.554879150390626,-0.7817068696022034,1.0079588890075684,9.676166534423828
1700823737397891600,8.5648916015625,-0.8523358106613159,-1.2066776752471924,9.836577415466309
1700823737407868400,8.574868408203125,-0.8152256608009338,1.2713210582733154,9.925163269042969
1700823737417878500,8.58487841796875,-0.1951274424791336,0.4668693244457245,11.12346076965332
1700823737427865900,8.594865966796876,-1.0067617893218994,0.1711854189634323,11.692084312438965
1700823737437977300,8.604977294921875,-0.8271966576576233,-0.5626373887062073,10.540472984313965
1700823737447923700,8.614923828125,-0.28969839215278625,-1.0606313943862915,8.066065788269043
1700823737458365400,8.625365478515626,0.4776432514190674,-1.9835960865020752,5.298368453979492
1700823737468185600,8.635185546875,-0.46567222476005554,-2.1152772903442383,6.645106792449951
1700823737478121000,8.645120849609375,-1.278503656387329,-3.731363296508789,8.401253700256348
1700823737488088300,8.65508837890625,-0.7134721279144287,-3.6535518169403076,8.412027359008789
1700823737499196200,8.666196044921875,-0.4405331015586853,-2.2361843585968018,6.721721172332764
1700823737509349000,8.67634912109375,-1.2090718746185303,-2.1296424865722656,5.5976433753967285
1700823737518641700,8.6856416015625,1.2306196689605713,-1.7501614093780518,5.834669589996338
1700823737528258300,8.69525830078125,1.0630255937576294,0.10654197633266449,7.1670427322387695
1700823737538100200,8.705100341796875,1.157596468925476,1.3215993642807007,9.093177795410156
1700823737548857000,8.715857177734375,0.17956513166427612,0.38067805767059326,10.772710800170898
1700823737559268600,8.7262685546875,-6.1267619132995605,-0.6009446382522583,12.537237167358398
1700823737568559400,8.735559326171876,-4.537012100219727,-2.716221809387207,12.156558990478516
1700823737578334200,8.745334228515626,0.3711012601852417,-3.643975019454956,10.986991882324219
1700823737588166700,8.755166748046875,2.0649988651275635,-3.847482204437256,9.47265911102295
1700823737598022000,8.76502197265625,2.1332337856292725,-3.4189200401306152,9.329007148742676
1700823737607960800,8.7749609375,2.2218191623687744,-3.178302764892578,9.036913871765137
1700823737617945300,8.7849453125,2.1739351749420166,-3.023876667022705,8.810662269592285
1700823737627934200,8.794934326171875,1.7489643096923828,-2.760514497756958,9.278728485107422
1700823737637948700,8.80494873046875,0.8870517015457153,-2.3032219409942627,10.20887565612793
1700823737647913200,8.814913330078125,-1.5825673341751099,-2.103306293487549,11.0887451171875
1700823737658105600,8.825105712890625,-2.6384103298187256,-2.61087703704834,11.59631633758545
1700823737668018000,8.835017822265625,-1.7836803197860718,-3.531447410583496,11.139023780822754
1700823737678009300,8.84500927734375,-1.3766659498214722,-3.2740707397460938,10.528501510620117
1700823737688041200,8.855041259765626,-0.9720458984375,-2.8191723823547363,10.26394271850586
1700823737697994000,8.864993896484375,0.19273324310779572,-3.226186752319336,9.714473724365234
1700823737707986200,8.874986083984375,1.4616601467132568,-2.8586769104003906,9.637859344482422
1700823737717958100,8.884958251953124,2.4384944438934326,-1.5310919284820557,10.170568466186523
1700823737727914500,8.89491455078125,3.5673606395721436,-1.0965443849563599,10.66137981414795
1700823737737918700,8.904918701171875,4.266467571258545,-2.385822057723999,10.846930503845215
1700823737748020500,8.9150205078125,4.064157485961914,-3.847482204437256,10.904391288757324
1700823737757966600,8.924966552734375,2.8790276050567627,-4.720168590545654,10.763134002685547
1700823737768010800,8.9350107421875,-0.7948749661445618,-5.260061264038086,9.339780807495117
1700823737778004000,8.94500390625,-1.890222191810608,-4.487931251525879,8.967482566833496
1700823737787927600,8.954927490234375,-2.492363929748535,-3.3949780464172363,9.017760276794434
1700823737797918200,8.964918212890625,-2.5498247146606445,-0.4944026470184326,11.182119369506836
1700823737807895600,8.9748955078125,-2.434903144836426,-2.920926094055176,11.558009147644043
1700823737817914400,8.984914306640626,-1.7345991134643555,-4.997896194458008,10.90678596496582
1700823737827922200,8.994922119140625,0.23343466222286224,-4.242525577545166,10.371682167053223
1700823737837969200,9.00496923828125,1.194706678390503,-3.6727054119110107,10.17416000366211
1700823737847953700,9.01495361328125,1.1659762859344482,-2.1535844802856445,9.931148529052734
1700823737858826800,9.02582666015625,0.12090718746185303,-2.342726469039917,9.127894401550293
1700823737869971500,9.036971435546874,-0.3124433159828186,-2.3044190406799316,7.814674377441406
1700823737879106800,9.04610693359375,-0.27413609623908997,-2.0590133666992188,7.578845500946045
1700823737888788000,9.0557880859375,-1.455674648284912,-1.3754688501358032,8.303091049194336
1700823737898403800,9.06540380859375,-0.5231330990791321,-0.5099649429321289,9.297882080078125
1700823737908787500,9.075787353515626,1.292868971824646,0.12689268589019775,10.581174850463867
1700823737918380800,9.085380859375,1.1659762859344482,-0.8355764150619507,10.597933769226074
1700823737928147000,9.09514697265625,0.5291185975074768,-3.1088709831237793,9.794678688049316
1700823737938093800,9.10509375,0.5710170865058899,-4.643554210662842,9.477447509765625
1700823737947981600,9.114981689453124,0.5638344883918762,-4.957194805145264,9.428366661071777
1700823737957955800,9.124955810546876,0.6404489278793335,-4.9583916664123535,9.229647636413574
1700823737968149000,9.13514892578125,0.1364694982767105,-4.6052470207214355,9.159018516540527
1700823737978651400,9.1456513671875,-0.5758054852485657,-4.267664432525635,8.884882926940918
1700823737988350200,9.15535009765625,-0.3866635859012604,-3.603273630142212,7.928399085998535
1700823737998127000,9.165127197265624,0.6117185354232788,-0.8259995579719543,8.265981674194336
1700823738008043500,9.17504345703125,-0.6380547285079956,-1.4544775485992432,9.646238327026367
1700823738018013200,9.18501318359375,-1.3634978532791138,-1.7573440074920654,9.154230117797852
1700823738028509200,9.19550927734375,-1.534683346748352,-2.9879636764526367,8.462306022644043
1700823738038402000,9.205402099609374,-0.7661445140838623,-4.2724528312683105,8.336610794067383
1700823738048126000,9.2151259765625,0.1388636976480484,-3.8295257091522217,9.485827445983887
1700823738058351600,9.2253515625,0.8415619134902954,-3.603273630142212,10.135852813720703
1700823738068104700,9.235104736328125,1.2102689743041992,-3.228580951690674,10.20528507232666
1700823738078370300,9.245370361328124,0.42018240690231323,-2.185906171798706,9.949105262756348
1700823738088164600,9.25516455078125,0.08738835901021957,-2.270900249481201,9.727641105651855
1700823738098185200,9.265185302734375,-0.21547815203666687,-2.561795711517334,9.015366554260254
1700823738108992300,9.2759921875,-0.15921440720558167,-2.535459518432617,8.71369743347168
1700823738118454000,9.2854541015625,0.20949265360832214,-2.2002713680267334,9.010578155517578
1700823738128172500,9.295172607421875,0.4644751250743866,-2.5127146244049072,9.32661247253418
1700823738138081800,9.305081787109375,0.5925649404525757,-3.064578056335449,9.346963882446289
1700823738148010000,9.315010009765626,0.2908954918384552,-3.2142157554626465,9.636661529541016
1700823738158017000,9.32501708984375,0.13527239859104156,-3.405751943588257,10.046070098876953
1700823738167950800,9.334950927734376,0.07422025501728058,-3.448847532272339,10.090363502502441
1700823738177941500,9.34494140625,0.22266076505184174,-3.885789394378662,9.364919662475586
1700823738193334300,9.360334228515624,-0.23104046285152435,-2.761711597442627,8.949525833129883
1700823738210619000,9.377618896484375,-0.23104046285152435,-2.761711597442627,8.949525833129883
1700823738228176000,9.39517578125,-0.46567222476005554,-2.6839001178741455,9.027337074279785
1700823738239977000,9.40697705078125,-0.7912836670875549,-1.9357120990753174,9.296685218811035
1700823738248014000,9.41501416015625,-0.3495534360408783,-1.6364368200302124,9.254786491394043
1700823738263473000,9.430472900390624,0.7649474143981934,-1.403002142906189,9.489418029785156
1700823738279242000,9.446241943359375,0.851138710975647,-1.4676456451416016,10.158597946166992
1700823738291997000,9.458996826171875,-0.15801730751991272,-2.01232647895813,10.860098838806152
1700823738303023000,9.470023193359374,0.18076223134994507,-2.3295583724975586,10.943896293640137
1700823738314693000,9.481693115234375,0.5578489899635315,-1.9045875072479248,10.451887130737305
1700823738326070000,9.493070068359375,-0.8032546639442444,1.1683704853057861,8.130708694458008
1700823738338738000,9.505738037109374,-0.8032546639442444,1.1683704853057861,8.130708694458008
1700823738348554000,9.515553955078126,-1.0247182846069336,2.2218191623687744,7.040150165557861
1700823738359322000,9.526322021484376,-1.6065093278884888,1.1192892789840698,7.393294811248779
1700823738372094000,9.539093994140625,-1.6065093278884888,1.1192892789840698,7.393294811248779
1700823738387951000,9.554951171875,-3.5063083171844482,-3.825934410095215,10.074800491333008
1700823738397975000,9.56497509765625,-1.5945383310317993,-5.3582234382629395,10.790667533874512
1700823738412671000,9.5796708984375,0.7661445140838623,-5.063736438751221,9.17577838897705
1700823738425880600,9.592880615234375,2.6850972175598145,-2.145204782485962,7.748833656311035
1700823738438644200,9.605644287109374,0.3866635859012604,-2.52109432220459,7.714118003845215
1700823738454364000,9.621364013671876,0.3866635859012604,-2.52109432220459,7.714118003845215
1700823738470911000,9.637910888671875,-3.181894063949585,-2.9652187824249268,8.629899978637695
1700823738488373000,9.655373046875,-4.027047157287598,-3.708618402481079,7.684190273284912
1700823738499463000,9.666462890625,-3.927687883377075,-5.367800235748291,7.493851184844971
1700823738508223000,9.675222900390626,-3.138798475265503,-7.025784969329834,8.346187591552734
1700823738519115000,9.686114990234374,-5.266046524047852,-10.358513832092285,8.591592788696289
1700823738528000000,9.695,-4.341884613037109,-11.253945350646973,9.764751434326172
1700823738537823000,9.704822998046875,-3.28963303565979,-11.613075256347656,10.47942066192627
1700823738548780000,9.715780029296875,-4.223371982574463,-14.194025039672852,9.589975357055664
1700823738559612000,9.72661181640625,8.185775756835938,0.2214636504650116,4.0964789390563965
1700823738572148000,9.73914794921875,-6.044162273406982,4.240131378173828,8.325836181640625
1700823738588000000,9.755,8.213309288024902,-5.153519153594971,14.364012718200684
1700823738598654000,9.765654052734375,-1.3838485479354858,-3.7421371936798096,10.128670692443848
1700823738608436000,9.77543603515625,-5.316324710845947,-4.226963043212891,11.932701110839844
1700823738619053000,9.786052978515626,-2.146401882171631,1.235408067703247,9.643844604492188
1700823738628024000,9.795024169921875,-2.542642116546631,-3.7876269817352295,7.139509677886963
1700823738638169000,9.805169189453125,-1.459265947341919,-11.006145477294922,5.329493045806885
1700823738650503000,9.8175029296875,-0.5386953949928284,-6.0010666847229,10.219650268554688
1700823738663386600,9.83038671875,-1.2078747749328613,-5.464765548706055,9.57321548461914
1700823738672748800,9.839748779296874,-1.1959037780761719,-3.9887399673461914,10.055646896362305
1700823738688272000,9.85527197265625,-1.1959037780761719,-3.9887399673461914,10.055646896362305
1700823738700827000,9.867826904296875,-0.7158663272857666,-5.479130744934082,9.971850395202637
1700823738709478000,9.876477783203125,-1.625662922859192,-5.918466567993164,10.062829971313477
1700823738722452000,9.889451904296875,-2.6599581241607666,-5.626373767852783,10.251971244812012
1700823738738147000,9.90514697265625,-1.2844891548156738,-5.167884349822998,10.231620788574219
1700823738750750000,9.91775,-2.0242974758148193,-4.689043998718262,9.412803649902344
1700823738768097000,9.935096923828125,-1.9560627937316895,-4.177882194519043,6.3697733879089355
1700823738778755000,9.945755126953125,-1.824381709098816,-4.387374401092529,7.267599105834961
1700823738788060000,9.955059814453126,-1.2521674633026123,-2.608482837677002,7.9643120765686035
1700823738798437000,9.96543701171875,-0.7481880187988281,-1.4628572463989258,8.252813339233398
1700823738807916000,9.974916015625,-1.2030863761901855,-0.19871874153614044,8.89445972442627
1700823738817864000,9.984864013671874,-2.1344308853149414,-0.4692635238170624,9.550470352172852
1700823738831406000,9.998406005859374,-0.8008604645729065,-1.8171991109848022,10.441113471984863
1700823738844595000,10.011594970703126,-0.6033388376235962,-4.219780445098877,10.073603630065918
1700823738861570000,10.028570068359375,-0.8164227604866028,-3.8079779148101807,8.665813446044922
1700823738877859000,10.044859130859376,-1.2114660739898682,-2.383427858352661,9.105149269104004
1700823738888168000,10.05516796875,-0.9828197956085205,-1.678335428237915,9.564835548400879
1700823738899532000,10.066531982421875,-1.1348515748977661,-2.3726539611816406,9.369708061218262
1700823738912741000,10.0797412109375,-0.5291185975074768,-3.1016883850097656,9.386467933654785
1700823738927942000,10.09494189453125,0.020350715145468712,-3.8355112075805664,8.883685111999512
1700823738937872000,10.104871826171875,-1.2725181579589844,-3.5936968326568604,9.113529205322266
1700823738948500000,10.1155,1.766920804977417,-2.3977930545806885,9.173383712768555
1700823738962498000,10.129498046875,1.8495208024978638,-3.043030261993408,9.512163162231445
1700823738979104000,10.14610400390625,2.823961019515991,-3.7421371936798096,10.049661636352539
1700823738987939000,10.15493896484375,-0.3663128614425659,-4.797980308532715,10.105925559997559
1700823739001578000,10.168577880859376,-1.9141643047332764,-2.3032219409942627,9.366117477416992
1700823739017905000,10.18490478515625,1.337161660194397,0.2944868206977844,8.398859977722168
1700823739029118000,10.196117919921875,1.7896658182144165,0.9588778018951416,10.178948402404785
1700823739037829000,10.2048291015625,0.5710170865058899,-1.4664485454559326,9.390059471130371
1700823739048109000,10.215109130859375,0.31124621629714966,-3.1459810733795166,8.142680168151855
1700823739058087000,10.2250869140625,1.3275848627090454,-3.361459255218506,8.406042098999023
1700823739067910000,10.234909912109375,2.3750481605529785,-2.676717519760132,9.821015357971191
1700823739078214000,10.2452138671875,3.1280245780944824,-2.7042508125305176,10.538078308105469
1700823739087811000,10.25481103515625,2.428917646408081,-3.4320881366729736,10.244789123535156
1700823739098166000,10.265166015625,1.0462661981582642,-3.0657753944396973,9.244012832641602
1700823739107935000,10.27493505859375,-0.50876784324646,-1.3084312677383423,8.131906509399414
1700823739117794000,10.2847939453125,-0.49799394607543945,-0.2537853717803955,8.541314125061035
1700823739128013000,10.295012939453125,-1.1192892789840698,0.015562310814857483,10.441113471984863
1700823739137835000,10.3048349609375,0.37828385829925537,0.026336219161748886,10.146626472473145
1700823739147986000,10.31498583984375,2.4384944438934326,-0.7649474143981934,9.352949142456055
1700823739157912000,10.324912109375,2.761711597442627,-2.5306711196899414,8.683769226074219
1700823739167927000,10.334927001953124,2.8179752826690674,-3.512293815612793,8.87051773071289
1700823739177840000,10.344840087890624,2.4576480388641357,-2.6599581241607666,10.182539939880371
1700823739187904000,10.354904052734375,2.165555477142334,-2.0673930644989014,10.427945137023926
1700823739197824000,10.364823974609376,1.8483237028121948,-1.5873557329177856,10.02691650390625
1700823739207978000,10.37497802734375,1.3239935636520386,-1.334767460823059,9.273940086364746
1700823739217916000,10.384916015625,1.157596468925476,-1.173158884048462,8.53652572631836
1700823739228406000,10.395406005859375,1.3623007535934448,-0.9385270476341248,8.470685958862305
1700823739237840000,10.40483984375,1.7405846118927002,-0.47405192255973816,9.045293807983398
1700823739247962000,10.414962158203124,1.6819267272949219,0.08379705995321274,9.29069995880127
1700823739258638000,10.42563818359375,2.0003554821014404,-0.6105214357376099,9.363722801208496
1700823739267896000,10.43489599609375,2.013523578643799,-1.823184609413147,9.637859344482422
1700823739278251000,10.4452509765625,2.0207061767578125,-2.759317398071289,9.824606895446777
1700823739287967000,10.454967041015625,1.823184609413147,-3.35667085647583,9.96825885772705
1700823739297821000,10.464821044921875,2.033874273300171,-3.4165258407592773,9.586383819580078
1700823739307884000,10.474884033203125,1.746570110321045,-2.5486276149749756,9.491812705993652
1700823739317817000,10.484817138671875,1.702277421951294,-1.2749123573303223,9.543288230895996
1700823739328165000,10.4951650390625,2.118868589401245,-0.4812345504760742,9.240421295166016
1700823739337795000,10.504795166015626,2.1954829692840576,-0.6655880808830261,9.427168846130371
1700823739347808000,10.51480810546875,1.5430630445480347,-0.9600749015808105,9.494206428527832
1700823739357914000,10.5249140625,0.767341673374176,-1.946485996246338,9.32541561126709
1700823739367798000,10.534798095703126,1.278503656387329,-3.2632968425750732,8.859743118286133
1700823739377812000,10.54481201171875,1.8794482946395874,-4.128800868988037,9.180566787719727
1700823739387878000,10.5548779296875,3.0370447635650635,-2.3092074394226074,10.41956615447998
1700823739397889000,10.564888916015626,3.092111587524414,0.1867477297782898,11.1474027633667
1700823739407876000,10.5748759765625,2.0374655723571777,-0.32202014327049255,9.639056205749512
1700823739417838000,10.584838134765626,1.7190368175506592,-0.8188169598579407,8.641871452331543
1700823739428115000,10.595114990234375,1.3012486696243286,-1.437718152999878,8.396465301513672
1700823739437802000,10.604802001953125,1.922544002532959,-1.2677297592163086,9.396044731140137
1700823739447880000,10.6148798828125,2.851494312286377,-1.192312479019165,9.999382972717285
1700823739457831000,10.624830810546875,2.761711597442627,-1.3994108438491821,9.679757118225098
1700823739467875000,10.634875,2.6563668251037598,-1.3563152551651,9.361329078674316
1700823739477807000,10.64480712890625,2.874239206314087,-1.5179238319396973,9.180566787719727
1700823739487868000,10.654867919921875,2.321178436279297,-1.8064252138137817,9.555258750915527
1700823739497814000,10.66481396484375,2.078166961669922,-1.437718152999878,9.77791976928711
1700823739507803000,10.674802978515626,1.656787633895874,-1.2737152576446533,9.6989107131958
1700823739517888000,10.684887939453125,1.0785878896713257,-0.9457096457481384,9.746794700622559
1700823739527803000,10.694802978515625,1.1863269805908203,-0.9289502501487732,9.423578262329102
1700823739537814000,10.70481396484375,1.6280571222305298,-1.0247182846069336,9.354146003723145
1700823739547816000,10.71481591796875,1.6053122282028198,-1.048660397529602,9.692925453186035
1700823739557800000,10.724800048828126,1.844732403755188,-1.2844891548156738,9.751583099365234
1700823739567818000,10.73481787109375,2.075772762298584,-1.3539210557937622,9.185355186462402
1700823739577890000,10.74489013671875,1.5382746458053589,-1.072602391242981,9.427168846130371
1700823739588479000,10.75547900390625,1.403002142906189,-1.1037269830703735,9.575610160827637
1700823739597793000,10.76479296875,1.721431016921997,-1.4520833492279053,9.41639518737793
1700823739607925000,10.774925048828125,1.8579005002975464,-1.900996208190918,9.30386734008789
1700823739617831000,10.784830810546875,2.031480073928833,-1.9991583824157715,9.769539833068848
1700823739627920000,10.794919921875,2.3080103397369385,-2.051830768585205,9.938331604003906
1700823739637849000,10.80484912109375,2.1296424865722656,-1.9081788063049316,9.75517463684082
1700823739647938000,10.81493798828125,2.01232647895813,-1.2198457717895508,9.01895809173584
1700823739657806000,10.82480615234375,-0.4812345504760742,-3.3051953315734863,5.772420406341553
1700823739667791000,10.834791015625,0.2645592987537384,-0.3734954595565796,9.083600997924805
1700823739677896000,10.84489599609375,3.354276657104492,0.02513911761343479,10.969035148620605
1700823739687788000,10.8547880859375,2.4648306369781494,-2.2828712463378906,8.772355079650879
1700823739697882000,10.864882080078125,1.656787633895874,-2.869450807571411,7.943961143493652
1700823739707797000,10.874796875,1.3694833517074585,-1.3718775510787964,10.81460952758789
1700823739717921000,10.884921142578126,1.8351556062698364,-0.17956513166427612,14.116212844848633
1700823739728108000,10.89510791015625,2.562992811203003,-0.15322890877723694,13.251906394958496
1700823739737826000,10.904825927734375,3.6164417266845703,-1.4736311435699463,9.287108421325684
1700823739747812000,10.91481201171875,3.1723172664642334,-1.7298107147216797,7.862558364868164
1700823739757841000,10.9248408203125,2.675520420074463,-1.2737152576446533,7.982268333435059
1700823739767928000,10.934927978515624,1.9907786846160889,-0.9014169573783875,8.458714485168457
1700823739777936000,10.944935791015626,2.049436569213867,-0.7565677165985107,9.048885345458984
1700823739787818000,10.95481787109375,2.1092917919158936,-0.4752490520477295,9.922768592834473
1700823739798020000,10.96502001953125,2.49834942817688,-0.4225766062736511,11.092336654663086
1700823739808001000,10.9750009765625,3.6786909103393555,-0.8834604024887085,11.475408554077148
1700823739817973000,10.984972900390625,4.278438568115234,-1.8160020112991333,10.499771118164062
1700823739828211000,10.9952109375,3.8582561016082764,-2.234987258911133,9.610325813293457
1700823739838948000,11.005947998046874,3.270479440689087,-2.213439464569092,8.040925979614258
1700823739848675000,11.015675048828125,2.3702597618103027,-1.8626888990402222,6.112396717071533
1700823739857884000,11.0248837890625,1.1336544752120972,-0.7757213711738586,6.922834396362305
1700823739867945000,11.034945068359375,0.8882488012313843,-0.3148375153541565,8.87051773071289
1700823739877948000,11.044947998046876,1.8363527059555054,-0.727837324142456,9.453505516052246
1700823739887906000,11.054906005859374,3.3028011322021484,-1.3946224451065063,9.465476036071777
1700823739897815000,11.06481494140625,4.527435302734375,-1.8124107122421265,8.89445972442627
1700823739907928000,11.074927978515625,4.969165802001953,-1.50355863571167,8.520963668823242
1700823739917915000,11.084914794921875,4.387374401092529,-0.31364041566848755,9.222464561462402
1700823739927933000,11.094932861328125,3.7421371936798096,0.5554547905921936,10.029311180114746
1700823739937851000,11.104850830078124,3.552995204925537,0.7386112213134766,10.573991775512695
1700823739947927000,11.114927001953125,3.049015760421753,1.5119383335113525,11.106701850891113
1700823739957926000,11.12492578125,1.677138328552246,1.0558429956436157,9.327810287475586
1700823739967990000,11.134989990234375,0.6368576288223267,0.729034423828125,9.475052833557129
1700823739977968000,11.144968017578124,0.09217676520347595,0.7326257228851318,11.291055679321289
1700823739988138000,11.155137939453125,1.0690110921859741,-0.18914192914962769,12.543222427368164
1700823739997954000,11.1649541015625,3.4081461429595947,-1.315613865852356,13.002909660339355
1700823740007927000,11.174927001953124,5.157110691070557,-1.8315643072128296,11.81059741973877
1700823740017837000,11.184837158203125,5.503072738647461,-2.2613234519958496,9.962273597717285
1700823740027888000,11.19488818359375,4.222174644470215,-2.293645143508911,8.437167167663574
1700823740039260000,11.206260009765625,1.8782511949539185,-1.8555063009262085,8.571242332458496
1700823740048000000,11.215,-0.08499415963888168,-0.6548141837120056,9.637859344482422
1700823740057880000,11.224880126953124,-0.5985504388809204,-0.15921440720558167,10.733205795288086
1700823740067999000,11.2349990234375,0.3016694188117981,-0.26815059781074524,10.722432136535645
1700823740077975000,11.24497509765625,0.38067805767059326,-0.2561795711517334,9.908403396606445
1700823740087963000,11.254962890625,-0.8846575021743774,0.22744916379451752,9.02254867553711
1700823740097872000,11.264871826171875,-1.5861586332321167,0.09816227108240128,8.919598579406738
1700823740107958000,11.2749580078125,-0.3579331636428833,-0.7110779285430908,9.095572471618652
1700823740117911000,11.2849111328125,1.6927006244659424,-1.2725181579589844,9.639056205749512
1700823740127812000,11.29481201171875,2.5917234420776367,-1.05105459690094,10.089165687561035
1700823740138006000,11.305006103515625,1.6340426206588745,1.192312479019165,9.904812812805176
1700823740148621000,11.31562109375,0.06703764945268631,2.8383262157440186,9.71926212310791
1700823740157904000,11.32490380859375,-0.3196259140968323,2.8562827110290527,8.518569946289062
1700823740167902000,11.33490185546875,0.3687070608139038,0.8092401623725891,8.13789176940918
1700823740177904000,11.344904052734375,0.35434186458587646,-0.2346317619085312,7.807491779327393
1700823740187959000,11.354958984375,-0.05027823522686958,-1.138442873954773,8.243236541748047
1700823740198007000,11.365007080078126,-0.40462008118629456,-1.3970166444778442,9.26675796508789
1700823740207937000,11.37493701171875,-0.15921440720558167,-1.1240776777267456,11.364078521728516
1700823740218015000,11.385014892578125,-0.4189853072166443,0.21667525172233582,12.502521514892578
1700823740227967000,11.394967041015626,-1.5550340414047241,2.0482394695281982,13.102269172668457
1700823740237920000,11.404919921875,-2.3774423599243164,2.1799206733703613,12.769474983215332
1700823740248002000,11.415001953125,-3.3913867473602295,0.912190854549408,11.202469825744629
1700823740258401000,11.425401123046875,-2.668337821960449,-0.2861070930957794,6.375759124755859
1700823740267975000,11.434974853515625,-0.6787561774253845,-0.3711012601852417,5.699397087097168
1700823740277897000,11.44489697265625,2.1775264739990234,0.6404489278793335,6.223727226257324
1700823740288149000,11.45514892578125,6.320692539215088,2.519897222518921,8.060079574584961
1700823740298159000,11.4651591796875,8.927978515625,2.1954829692840576,8.904036521911621
1700823740307920000,11.474919921875,6.617573261260986,-0.3148375153541565,8.501810073852539
1700823740317822000,11.484822021484375,2.9891607761383057,-1.5442601442337036,7.023390769958496
1700823740327819000,11.494819091796876,1.0582371950149536,0.13407529890537262,7.010222434997559
1700823740338060000,11.50506005859375,1.8375498056411743,0.29209262132644653,6.426037311553955
1700823740347935000,11.51493505859375,1.964442491531372,0.4429273009300232,5.408501625061035
1700823740357854000,11.52485400390625,0.8631097078323364,1.2282254695892334,5.134365558624268
1700823740368004000,11.535004150390625,-0.3603273630142212,1.3120225667953491,5.6012349128723145
1700823740377842000,11.544842041015626,-0.46806642413139343,1.2976573705673218,9.672574996948242
1700823740388188000,11.55518798828125,0.3256114423274994,1.0821791887283325,13.715184211730957
1700823740397838000,11.564838134765624,-0.21547815203666687,1.1492167711257935,14.906299591064453
1700823740407909000,11.5749091796875,-0.9983820915222168,0.9421183466911316,14.70518684387207
1700823740417847000,11.584846923828126,-0.8451532125473022,1.0067617893218994,13.60983943939209
1700823740427997000,11.594996826171876,0.4800374507904053,0.5506663918495178,12.300210952758789
1700823740438102000,11.60510205078125,2.875436305999756,-1.766920804977417,10.901997566223145
1700823740447949000,11.614948974609375,3.7241806983947754,-2.1775264739990234,9.568427085876465
1700823740458029000,11.625029052734375,3.2992098331451416,-1.725022315979004,9.461885452270508
1700823740468341000,11.635341064453126,2.2685060501098633,0.304063618183136,11.73398208618164
1700823740477844000,11.644843994140626,1.800439715385437,0.9014169573783875,14.709975242614746
1700823740488243000,11.655242919921875,1.6531962156295776,0.646434485912323,15.569493293762207
1700823740498034000,11.665033935546875,1.647210717201233,1.0055646896362305,14.51245403289795
1700823740507893000,11.67489306640625,2.0231003761291504,0.6392518281936646,11.487380027770996
1700823740517869000,11.684869140625,2.5522189140319824,0.181959331035614,8.494627952575684
1700823740527904000,11.694904052734374,2.1727380752563477,0.2885012924671173,6.640318393707275
1700823740537848000,11.70484814453125,0.8427590131759644,0.3363853394985199,5.024232387542725
1700823740547928000,11.714927978515625,0.2513911724090576,-0.7984662652015686,4.830301761627197
1700823740557967000,11.724967041015624,0.9373299479484558,-2.5941176414489746,4.6722846031188965
1700823740567927000,11.734927001953125,1.2485761642456055,-1.823184609413147,5.310339450836182
1700823740577914000,11.7449140625,0.5566518902778625,-0.8667010068893433,7.657854080200195
1700823740587972000,11.75497216796875,0.8224082589149475,-0.9744400978088379,7.589619159698486
1700823740597837000,11.764837158203125,1.3419500589370728,-1.0450690984725952,7.593210697174072
1700823740608051000,11.775051025390624,1.4317326545715332,-1.315613865852356,8.374917984008789
1700823740617850000,11.78485009765625,0.6979097723960876,-1.4867992401123047,9.361329078674316
1700823740627902000,11.79490185546875,-0.30047231912612915,-1.4951789379119873,10.229227066040039
1700823740637848000,11.80484814453125,-2.0638017654418945,-1.4628572463989258,11.60708999633789
1700823740647924000,11.814924072265624,-2.5342624187469482,-1.9141643047332764,12.407950401306152
1700823740657859000,11.824859130859375,-0.05147533491253853,-2.318784236907959,12.799402236938477
1700823740667924000,11.834924072265625,4.441244125366211,-1.9261353015899658,12.67131233215332
1700823740677872000,11.8448720703125,9.653421401977539,-1.403002142906189,12.60188102722168
1700823740688152000,11.855152099609375,11.961431503295898,-0.9612720012664795,11.41555404663086
1700823740697933000,11.86493310546875,8.910021781921387,-1.0893617868423462,8.862137794494629
1700823740707823000,11.874822998046875,4.897339344024658,-1.5741876363754272,6.197391033172607
1700823740717804000,11.884803955078125,0.9660604000091553,-2.053027868270874,3.1723172664642334
1700823740728047000,11.895047119140624,-4.705803394317627,-2.851494312286377,3.2405519485473633
1700823740737987000,11.904987060546874,-3.8391025066375732,-2.433706045150757,7.930793285369873
1700823740747811000,11.91481103515625,-2.6455929279327393,-0.1711854189634323,12.723984718322754
1700823740757811000,11.92481103515625,0.16639702022075653,1.5729905366897583,16.28057098388672
1700823740767815000,11.93481494140625,2.5737667083740234,2.161964178085327,17.61893081665039
1700823740777902000,11.944902099609376,3.3470940589904785,0.7218518257141113,15.00925064086914
1700823740788096000,11.955095947265624,1.9476830959320068,-0.10534487664699554,11.376049041748047
1700823740797978000,11.96497802734375,0.690727174282074,-1.2258312702178955,8.890868186950684
1700823740807981000,11.97498095703125,0.667982280254364,-2.1284453868865967,7.760804653167725
1700823740817969000,11.984968994140624,1.2689268589019775,-2.1116859912872314,7.959523677825928
1700823740828072000,11.995072021484376,1.8303672075271606,-1.9620482921600342,8.769960403442383
1700823740837945000,12.004945068359374,2.140416383743286,-1.7753005027770996,9.530119895935059
1700823740847972000,12.01497216796875,1.9512743949890137,-1.380257248878479,9.832986831665039
1700823740857851000,12.024850830078124,1.3455413579940796,-1.0666168928146362,9.800664901733398
1700823740867980000,12.03497998046875,1.212663173675537,-0.9481038451194763,9.794678688049316
1700823740878421000,12.0454208984375,1.4532804489135742,-2.079364061355591,9.670180320739746
1700823740891320000,12.058320068359375,1.3970166444778442,-2.1332337856292725,9.75517463684082
1700823740907945000,12.074945068359375,0.5446808934211731,-1.988384485244751,10.249577522277832
1700823740917891000,12.08489111328125,0.812831461429596,-1.9357120990753174,10.322600364685059
1700823740928686000,12.09568603515625,1.403002142906189,-2.122459888458252,10.575188636779785
1700823740937896000,12.10489599609375,1.3694833517074585,-1.9069817066192627,9.497797966003418
1700823740947883000,12.114883056640625,1.535880446434021,-0.9277531504631042,9.639056205749512
1700823740957861000,12.124861083984374,1.2066776752471924,-0.8571242094039917,9.29069995880127
1700823740967946000,12.134946044921875,0.6236895322799683,-1.0642226934432983,8.802282333374023
1700823740977812000,12.14481201171875,1.0642226934432983,-1.158793568611145,8.868123054504395
1700823740988142000,12.15514208984375,1.9369091987609863,-1.414973258972168,9.639056205749512
1700823740997836000,12.1648359375,5.103240966796875,-1.0199298858642578,10.517727851867676
1700823741007954000,12.174953857421874,6.31949520111084,-0.7984662652015686,11.524490356445312
1700823741017940000,12.18493994140625,3.532644510269165,-1.1264718770980835,9.429563522338867
1700823741027987000,12.194987060546875,2.056619167327881,-1.161187767982483,10.067618370056152
1700823741037951000,12.204950927734375,-0.2322375625371933,-1.2677297592163086,9.271546363830566
1700823741047974000,12.214973876953126,-1.987187385559082,-1.2306196689605713,8.11514663696289
1700823741058106000,12.225106201171876,-3.199850559234619,-1.3275848627090454,8.406042098999023
1700823741067904000,12.234904052734375,-1.3263877630233765,-1.0893617868423462,11.048044204711914
1700823741077852000,12.244851806640625,2.031480073928833,-1.2437877655029297,11.050437927246094
1700823741088139000,12.255138916015625,3.157952070236206,-1.0534487962722778,11.256339073181152
1700823741097967000,12.264967041015625,3.3243491649627686,-1.0067617893218994,10.87326717376709
1700823741107903000,12.274903076171874,3.228580951690674,-1.1899182796478271,9.745597839355469
1700823741117853000,12.28485302734375,3.2333693504333496,-0.7122750282287598,9.391256332397461
1700823741129105000,12.29610498046875,2.9029695987701416,-0.34835633635520935,8.732851028442383
1700823741137814000,12.30481396484375,1.9740192890167236,-0.152031809091568,8.249221801757812
1700823741147819000,12.314819091796876,-0.5877765417098999,-0.9552865028381348,7.996633529663086
1700823741157888000,12.324887939453125,-0.47165772318840027,-2.011129379272461,7.759607791900635
1700823741168141000,12.33514111328125,-0.38067805767059326,-1.7597382068634033,8.635885238647461
1700823741177823000,12.344822998046874,0.3280056416988373,-0.49799394607543945,10.718840599060059
1700823741190901000,12.35790087890625,1.7944542169570923,-0.7697358727455139,11.100716590881348
1700823741207925000,12.374925048828125,4.301183223724365,-0.7697358727455139,9.515754699707031
1700823741217836000,12.3848359375,4.350264549255371,-0.586579442024231,8.80587387084961
1700823741227986000,12.39498583984375,2.7090392112731934,-0.6236895322799683,8.835801124572754
1700823741238529000,12.405529052734375,0.7457938194274902,-0.1975216418504715,9.3828763961792
1700823741247943000,12.41494287109375,-0.706289529800415,0.1735796183347702,11.097125053405762
1700823741257878000,12.4248779296875,-0.871489405632019,-0.20470423996448517,12.257115364074707
1700823741267800000,12.434800048828125,0.7134721279144287,0.2645592987537384,12.842497825622559
1700823741277836000,12.4448359375,1.9033904075622559,0.8786720037460327,13.311761856079102
1700823741288047000,12.455047119140625,3.3458969593048096,0.5674257874488831,12.465411186218262
1700823741297921000,12.464921142578126,3.993528366088867,-0.3411737382411957,9.872490882873535
1700823741307893000,12.47489306640625,2.7533318996429443,-5.4025163650512695,2.321178436279297
1700823741317801000,12.484801025390626,2.078166961669922,-1.048660397529602,5.216965675354004
1700823741327968000,12.494968017578126,1.170764684677124,-0.3064578175544739,7.362170219421387
1700823741337865000,12.504864990234376,-0.6212953329086304,-0.4225766062736511,9.10874080657959
1700823741347997000,12.514996826171876,-0.5985504388809204,-0.31603461503982544,10.720038414001465
1700823741357846000,12.524845947265625,0.8080430626869202,-0.3866635859012604,11.585541725158691
1700823741368050000,12.5350498046875,2.5534160137176514,-0.3387795388698578,11.283872604370117
1700823741377805000,12.54480517578125,4.290409564971924,0.05267243832349777,11.534067153930664
1700823741387922000,12.554921875,4.041412353515625,0.5758054852485657,11.070788383483887
1700823741397798000,12.5647978515625,2.699462413787842,0.8080430626869202,10.279504776000977
1700823741407917000,12.5749169921875,-0.15442600846290588,1.0187327861785889,10.113107681274414
1700823741417800000,12.584800048828125,-2.188300371170044,0.730231523513794,10.439916610717773
1700823741427999000,12.5949990234375,-0.9085995554924011,0.5722141861915588,12.050017356872559
1700823741437985000,12.604985107421875,2.5797524452209473,0.2693476974964142,13.007698059082031
1700823741447811000,12.61481103515625,5.3761796951293945,0.16998831927776337,13.293805122375488
1700823741457790000,12.6247900390625,6.539762020111084,0.49559974670410156,12.634202003479004
1700823741467890000,12.634889892578125,6.282385349273682,0.7876923680305481,11.100716590881348
1700823741477840000,12.64483984375,3.6750996112823486,1.0773907899856567,8.78193187713623
1700823741487938000,12.65493798828125,-1.091755986213684,-0.05506663769483566,5.288791656494141
1700823741498422000,12.665422119140626,-5.647922039031982,0.9612720012664795,7.599195957183838
1700823741508777000,12.67577685546875,-4.416105270385742,-1.5933412313461304,6.530185222625732
1700823741517790000,12.6847900390625,-1.1324573755264282,0.22026655077934265,10.104728698730469
1700823741528067000,12.695067138671876,3.139995574951172,0.5877765417098999,11.805809020996094
1700823741537975000,12.70497509765625,6.482301235198975,0.993593692779541,11.075576782226562
1700823741547913000,12.714912841796876,7.465120792388916,0.5207388401031494,9.823410034179688
1700823741557799000,12.724798828125,8.157045364379883,0.9911994934082031,8.954314231872559
1700823741567935000,12.73493505859375,5.412093162536621,4.808753967285156,12.570755958557129
1700823741577797000,12.744797119140625,6.282385349273682,-0.03711012750864029,5.729324817657471
1700823741587918000,12.75491796875,1.2713210582733154,-1.8818424940109253,5.20978307723999
1700823741598175000,12.765175048828125,-2.9735984802246094,0.363918662071228,7.554903507232666
1700823741607804000,12.774803955078125,-3.2836475372314453,0.729034423828125,9.028534889221191
1700823741617913000,12.7849130859375,-2.0219032764434814,0.8643068075180054,9.63067626953125
1700823741627802000,12.794802001953125,0.7733271718025208,0.9564836025238037,8.652645111083984
1700823741637917000,12.8049169921875,3.068169593811035,0.8020575642585754,6.8593878746032715
1700823741647815000,12.81481494140625,3.801992416381836,1.3215993642807007,6.50025749206543
1700823741657960000,12.8249599609375,4.557363033294678,1.3251906633377075,6.865373611450195
1700823741667979000,12.83497900390625,5.328295707702637,0.8463503122329712,7.0353617668151855
1700823741678208000,12.8452080078125,6.036979675292969,0.4513070285320282,6.890512466430664
1700823741687949000,12.854948974609375,4.714183330535889,0.22385786473751068,6.587646007537842
1700823741697811000,12.86481103515625,1.382651448249817,0.16879121959209442,7.150283336639404
1700823741707824000,12.87482421875,-1.820790410041809,0.4596867263317108,8.647856712341309
1700823741717801000,12.884801025390624,-4.246116638183594,0.569819986820221,9.953893661499023
1700823741727888000,12.894887939453126,-4.820724964141846,0.8415619134902954,10.642226219177246
1700823741737908000,12.904907958984374,-2.960430383682251,1.158793568611145,11.73398208618164
1700823741747988000,12.914988037109374,0.7577648162841797,0.5147533416748047,10.967838287353516
1700823741757830000,12.924829833984376,5.0290207862854,0.39384618401527405,9.917980194091797
1700823741767924000,12.934924072265625,5.580883979797363,0.4010287821292877,9.003395080566406
1700823741777884000,12.9448837890625,7.981071472167969,0.27892449498176575,10.490194320678711
1700823741787894000,12.95489404296875,5.896918773651123,0.24660277366638184,10.2747163772583
1700823741797897000,12.96489697265625,4.244919776916504,-1.192312479019165,7.997830867767334
1700823741807893000,12.97489306640625,-1.9979612827301025,-0.6787561774253845,7.265204906463623
1700823741817834000,12.984833984375,0.5434837937355042,0.25019407272338867,9.130288124084473
1700823741827798000,12.994798095703125,3.0119056701660156,2.1763293743133545,15.154099464416504
1700823741837902000,13.004902099609374,2.8802247047424316,2.2816741466522217,15.16008472442627
1700823741848151000,13.015151123046875,2.3558945655822754,0.9648633003234863,12.021286964416504
1700823741857816000,13.024816162109374,2.4193408489227295,-0.507570743560791,8.163030624389648
1700823741867920000,13.034919921875,1.659181833267212,-0.7948749661445618,6.783970355987549
1700823741877798000,13.0447978515625,1.113303780555725,-1.314416766166687,5.719748020172119
1700823741887957000,13.05495703125,0.6141127347946167,-1.4077905416488647,5.86699104309082
1700823741897830000,13.064829833984374,-0.5554547905921936,-1.1001356840133667,6.53257942199707
1700823741907882000,13.074882080078124,-1.9081788063049316,-0.6368576288223267,8.329427719116211
1700823741921659000,13.088658935546874,0.6536170840263367,0.27413609623908997,11.522095680236816
1700823741937977000,13.10497705078125,3.797203779220581,1.7322049140930176,15.86038875579834
1700823741947793000,13.11479296875,4.246116638183594,1.035492181777954,16.28536033630371
1700823741957971000,13.124970947265625,4.838681697845459,-0.08259996026754379,13.35964584350586
1700823741968275000,13.13527490234375,1.157596468925476,-0.2908954918384552,10.498574256896973
1700823741977914000,13.1449140625,-1.3742717504501343,-0.8092401623725891,8.358158111572266
1700823741987893000,13.15489306640625,-2.1380221843719482,-0.9313444495201111,7.4316020011901855
1700823741997881000,13.164881103515626,0.33039984107017517,-1.0905588865280151,7.266402244567871
1700823742007802000,13.174802001953125,3.9228994846343994,-1.191115379333496,6.651092529296875
1700823742017838000,13.184838134765625,3.955221176147461,-1.0582371950149536,7.775169849395752
