time,seconds_elapsed,z,y,x
1700822861867335000,0.1793349609375,-0.10718536376953125,-0.023757219314575195,0.0081404447555542
1700822861883168000,0.19516796875,-0.4639263153076172,0.06233477592468262,0.013766348361968994
1700822861895892500,0.207892578125,-0.9318857192993164,0.00010132789611816406,-0.17394638061523438
1700822861907351300,0.219351318359375,-1.5413298606872559,-0.4821927547454834,-0.6823427677154541
1700822861918040600,0.23004052734375,-1.5400753021240234,-0.5697425603866577,-0.6239802241325378
1700822861928319700,0.24031982421875,-1.2534408569335938,-0.5487747192382812,-0.5216666460037231
1700822861938509300,0.25050927734375,-0.9826345443725586,-0.5117535591125488,-0.3429300785064697
1700822861948561700,0.260561767578125,-0.8433656692504883,-0.502994179725647,-0.2093498706817627
1700822861958614800,0.27061474609375,-0.6381044387817383,-0.449207067489624,-0.10417473316192627
1700822861968627500,0.28062744140625,-0.31091880798339844,-0.3709639310836792,-0.10014867782592773
1700822861978635800,0.2906357421875,-0.08136463165283203,-0.3829387426376343,-0.07114267349243164
1700822861988614400,0.300614501953125,0.030225753784179688,-0.31407856941223145,0.07312047481536865
1700822861998669000,0.3106689453125,0.218292236328125,-0.07520925998687744,0.3341222405433655
1700822862008897000,0.32089697265625,0.4126882553100586,0.12402153015136719,0.5056121349334717
1700822862018757600,0.330757568359375,0.5343542098999023,0.24495887756347656,0.4900893568992615
1700822862028757200,0.34075732421875,0.44000244140625,0.2137235403060913,0.36930763721466064
1700822862038757000,0.350757080078125,0.21875476837158203,0.03835010528564453,0.16919869184494019
1700822862049050600,0.361050537109375,-0.0723724365234375,-0.09401381015777588,0.003165900707244873
1700822862059010300,0.37101025390625,-0.27164268493652344,-0.08003413677215576,-0.1387256383895874
1700822862068936700,0.380936767578125,-0.43045520782470703,-0.07467186450958252,-0.23819035291671753
1700822862078842400,0.39084228515625,-0.5972871780395508,-0.1493595838546753,-0.23238980770111084
1700822862088848100,0.40084814453125,-0.8080463409423828,-0.1951669454574585,-0.049957990646362305
1700822862099154200,0.411154296875,-0.8798971176147461,-0.34025514125823975,0.08515262603759766
1700822862109036500,0.42103662109375,4.007434844970703,0.4832066297531128,1.6910961866378784
1700822862118913800,0.430913818359375,4.175832748413086,0.566448450088501,3.146345615386963
1700822862128790300,0.440790283203125,-0.8788175582885742,-0.0634465217590332,-0.7240086793899536
1700822862138776000,0.450776123046875,0.9446964263916016,0.19754183292388916,-0.7632317543029785
1700822862149148700,0.461148681640625,-0.7591428756713867,-0.2502787113189697,-0.10673868656158447
1700822862159011300,0.47101123046875,-0.2821521759033203,-0.24759578704833984,-0.04738259315490723
1700822862168968700,0.48096875,-0.4799652099609375,-0.076263427734375,-0.030239582061767578
1700822862178984000,0.49098388671875,-0.38604736328125,0.10893440246582031,0.021234512329101562
1700822862188873500,0.50087353515625,-0.6438589096069336,0.2665671110153198,-0.046257734298706055
1700822862199133700,0.5111337890625,-1.107457160949707,0.29167890548706055,0.016725778579711914
1700822862208968400,0.520968505859375,-1.185084342956543,0.19082415103912354,-0.014957189559936523
1700822862218866700,0.53086669921875,-1.0170297622680664,0.09030389785766602,0.256572425365448
1700822862228851500,0.5408515625,0.3388347625732422,0.20423007011413574,1.1590347290039062
1700822862238809000,0.55080908203125,1.5593194961547852,-0.17618966102600098,1.125704050064087
1700822862248739600,0.560739501953125,1.3627042770385742,-0.30221807956695557,1.408897876739502
1700822862258764800,0.570764892578125,1.6865148544311523,-0.31760096549987793,0.8610681891441345
1700822862268772900,0.58077294921875,0.9832334518432617,-0.13588225841522217,0.47775813937187195
1700822862278681900,0.590681884765625,0.6054573059082031,-0.03735077381134033,0.5435043573379517
1700822862288715500,0.600715576171875,0.2584695816040039,-0.18901371955871582,0.5510599613189697
1700822862298814700,0.610814697265625,0.017601966857910156,-0.4532651901245117,0.36471378803253174
1700822862308727300,0.620727294921875,-0.40936946868896484,-0.6236027479171753,0.043251097202301025
1700822862318688800,0.630688720703125,-0.9841079711914062,-0.31193792819976807,-0.28602170944213867
1700822862328695800,0.64069580078125,-1.3940658569335938,-0.034731149673461914,-0.7719530463218689
1700822862338665000,0.6506650390625,-1.5553674697875977,0.038530588150024414,-0.6971049904823303
1700822862348686000,0.66068603515625,-0.661412239074707,-0.04178047180175781,0.0322914719581604
1700822862358643000,0.670642822265625,-0.012778282165527344,-0.06199312210083008,0.41757437586784363
1700822862368702000,0.680701904296875,-0.4109668731689453,-0.06426644325256348,0.15988284349441528
1700822862378720000,0.690719970703125,-1.2027559280395508,-0.06116211414337158,-0.17665249109268188
1700822862388739000,0.700739013671875,-1.388594627380371,0.011975765228271484,-0.13067466020584106
1700822862398880000,0.7108798828125,-0.9984264373779297,0.24089586734771729,0.12049692869186401
1700822862408817000,0.72081689453125,-0.4996652603149414,0.3954479694366455,0.2022266685962677
1700822862418776600,0.730776611328125,-0.1415548324584961,0.45654261112213135,0.27048009634017944
1700822862428749300,0.740749267578125,0.09040355682373047,0.30196714401245117,0.10928884148597717
1700822862438797000,0.750797119140625,-0.07315731048583984,0.07682359218597412,-0.06058096885681152
1700822862448733200,0.760733154296875,-0.1698312759399414,-0.3008466958999634,-0.2818602919578552
1700822862458677500,0.770677490234375,-0.14499473571777344,-0.49113619327545166,-0.23548763990402222
1700822862468663300,0.780663330078125,0.005064964294433594,-0.3204706907272339,0.012684643268585205
1700822862478655700,0.79065576171875,0.06443405151367188,-0.05017983913421631,-0.07313981652259827
1700822862488648200,0.800648193359375,-0.3177938461303711,-0.02001166343688965,-0.23774734139442444
1700822862498661600,0.81066162109375,-0.6143045425415039,-0.2365121841430664,-0.23270860314369202
1700822862508654300,0.820654296875,-0.5883684158325195,-0.24272286891937256,-0.1863342821598053
1700822862518702000,0.8307021484375,-0.6911544799804688,-0.1760324239730835,-0.3829661011695862
1700822862528775200,0.840775146484375,0.32985687255859375,0.4767458438873291,0.08418568968772888
1700822862538761000,0.850760986328125,1.0430574417114258,0.8580255508422852,0.6118759512901306
1700822862548792600,0.86079248046875,1.0819368362426758,0.9042665958404541,1.066652774810791
1700822862558915300,0.870915283203125,0.5154533386230469,0.5459396839141846,0.9278914332389832
1700822862568869000,0.880869140625,-0.19911479949951172,-0.24077725410461426,0.42824268341064453
1700822862578921500,0.89092138671875,-0.33008861541748047,-0.9922432899475098,0.10445904731750488
1700822862588936700,0.900936767578125,-0.008769989013671875,-0.8124343156814575,0.5332709550857544
1700822862598942000,0.91094189453125,0.49736976623535156,-0.3017261028289795,1.1866012811660767
1700822862608881000,0.920880859375,0.5723857879638672,0.1634974479675293,1.5111232995986938
1700822862618857500,0.930857421875,0.21628475189208984,0.5439517498016357,1.439814805984497
1700822862628881200,0.940881103515625,-0.05169868469238281,0.5830645561218262,0.96820068359375
1700822862639901700,0.951901611328125,-0.29551124572753906,0.6442327499389648,0.6922022104263306
1700822862649284900,0.961284912109375,-0.1501140594482422,0.4022200107574463,0.47646212577819824
1700822862658960400,0.97096044921875,0.33260059356689453,-0.02815556526184082,0.40680038928985596
1700822862668794000,0.980794189453125,1.0157041549682617,-0.1308732032775879,0.5267406702041626
1700822862678783000,0.990782958984375,1.5379104614257812,0.028820514678955078,0.9617558717727661
1700822862688794000,1.000794189453125,1.985391616821289,0.22202682495117188,1.5265083312988281
1700822862698848500,1.0108486328125,1.7501306533813477,0.592581033706665,1.9759167432785034
1700822862708820700,1.02082080078125,0.7669095993041992,0.8657486438751221,2.0741801261901855
1700822862718790400,1.030790283203125,0.2737751007080078,1.0341894626617432,1.9221769571304321
1700822862728759300,1.04075927734375,-0.3892230987548828,0.9256150722503662,1.8764537572860718
1700822862738734000,1.050734130859375,-1.4863290786743164,0.27328014373779297,1.3114509582519531
1700822862748680000,1.060679931640625,-2.098855972290039,-0.6209845542907715,0.2726435661315918
1700822862758655500,1.070655517578125,-2.12673282623291,-1.0723333358764648,-0.8093447685241699
1700822862768713200,1.080713134765625,-1.4186334609985352,-0.9199758768081665,-1.2284774780273438
1700822862778751200,1.090751220703125,-0.7447786331176758,-0.30965137481689453,0.1836785078048706
1700822862788774700,1.100774658203125,1.0500555038452148,0.13620424270629883,0.9901837110519409
1700822862799030300,1.1110302734375,1.984421730041504,0.5619852542877197,1.5016143321990967
1700822862808886500,1.120886474609375,1.4866561889648438,1.0303010940551758,1.8293893337249756
1700822862818804700,1.1308046875,1.03460693359375,1.1988649368286133,1.9004770517349243
1700822862828865500,1.140865478515625,0.22755908966064453,0.8246269226074219,1.5570837259292603
1700822862838895600,1.1508955078125,-0.21625137329101562,-0.10514354705810547,0.5413476824760437
1700822862848788000,1.1607880859375,-0.5617189407348633,-0.31339502334594727,0.14676107466220856
1700822862858854400,1.1708544921875,-0.5950412750244141,-0.4355781078338623,-0.04664364457130432
1700822862868918800,1.180918701171875,0.09322452545166016,-0.3952575922012329,-0.18309831619262695
1700822862878870300,1.190870361328125,0.34029579162597656,-0.1974196434020996,-0.07030528783798218
1700822862888842800,1.2008427734375,-0.18840599060058594,0.07443451881408691,0.33514440059661865
1700822862898867500,1.210867431640625,-0.46640968322753906,0.2043900489807129,0.6316536664962769
1700822862908881200,1.220881103515625,-0.4002237319946289,0.4026153087615967,0.7428368330001831
1700822862918824700,1.23082470703125,-0.5010547637939453,0.40032434463500977,0.6194531917572021
1700822862928798700,1.240798828125,-0.7448139190673828,0.3031504154205322,0.5002069473266602
1700822862938820400,1.2508203125,-0.5974807739257812,0.46489787101745605,0.7109708786010742
1700822862948824300,1.26082421875,-0.38405418395996094,0.32370543479919434,0.8012198805809021
1700822862958802700,1.270802734375,-0.4506521224975586,0.09210371971130371,0.41178762912750244
1700822862968842200,1.28084228515625,-0.5755958557128906,-0.2165125608444214,-0.1251993179321289
1700822862978865700,1.29086572265625,-0.3289937973022461,-0.36378002166748047,-0.41125714778900146
1700822862988875300,1.300875244140625,-0.2033548355102539,-0.31810808181762695,-0.32690882682800293
1700822862998801700,1.3108017578125,-0.7230854034423828,-0.11564040184020996,0.08265912532806396
1700822863008804900,1.320804931640625,-0.8137645721435547,-0.10313105583190918,0.31546711921691895
1700822863019604000,1.33160400390625,-0.9696636199951172,0.11535406112670898,0.568436861038208
1700822863029166800,1.341166748046875,-1.078618049621582,0.30477261543273926,0.5839443206787109
1700822863039020500,1.3510205078125,-1.200078010559082,0.45625734329223633,0.35002243518829346
1700822863048852200,1.360852294921875,-1.2699146270751953,0.6670136451721191,0.1521075963973999
1700822863058785500,1.37078564453125,-0.36392784118652344,0.5099258422851562,-0.07541584968566895
1700822863068716300,1.38071630859375,1.0061302185058594,-0.029165267944335938,-0.10648822784423828
1700822863078739700,1.39073974609375,1.5813837051391602,-0.4518700838088989,0.10023069381713867
1700822863089966300,1.40196630859375,0.41324615478515625,-0.22783339023590088,0.5059678554534912
1700822863099350800,1.411350830078125,-0.26613330841064453,0.0039365291595458984,0.46971166133880615
1700822863108996400,1.420996337890625,-0.38314247131347656,-0.15767896175384521,0.20209729671478271
1700822863118870800,1.430870849609375,-0.5718488693237305,-0.2477205991744995,-0.12817716598510742
1700822863128815400,1.4408154296875,-0.6002864837646484,-0.10964393615722656,-0.309661865234375
1700822863138790100,1.4507900390625,-0.42320823669433594,0.09195423126220703,-0.06868457794189453
1700822863148768500,1.4607685546875,-0.0829916000366211,0.4311995506286621,0.4012531042098999
1700822863158782200,1.4707822265625,-0.3168611526489258,0.4250936508178711,0.1281358003616333
1700822863168861700,1.48086181640625,-0.6192522048950195,0.34119391441345215,-0.2209995985031128
1700822863178931700,1.490931640625,-0.64544677734375,0.2409517765045166,-0.30498790740966797
1700822863188908000,1.500907958984375,-0.5644979476928711,0.08237934112548828,-0.15658020973205566
1700822863198812400,1.5108125,-0.3749809265136719,-0.041934967041015625,-0.1091771125793457
1700822863208747300,1.520747314453125,-0.5840644836425781,0.26901769638061523,0.19826602935791016
1700822863218825200,1.5308251953125,-1.0156068801879883,0.35897064208984375,0.43746060132980347
1700822863228826000,1.540826171875,-1.6249361038208008,0.27355217933654785,1.1816134452819824
1700822863238871600,1.55087158203125,-2.079054355621338,0.02648782730102539,1.683674931526184
1700822863248917800,1.560917724609375,-2.0214905738830566,-0.18536734580993652,1.069442629814148
1700822863259035000,1.571034912109375,-1.699232578277588,-0.3441295623779297,-0.2088671326637268
1700822863268878300,1.58087841796875,-0.960484504699707,-0.33486390113830566,-1.3221986293792725
1700822863278799600,1.590799560546875,-0.4575309753417969,0.07625484466552734,-1.779954433441162
1700822863288898800,1.60089892578125,0.11141014099121094,-0.08051395416259766,-1.573119044303894
1700822863298943000,1.61094287109375,0.6483068466186523,-0.09370851516723633,-0.5342363119125366
1700822863308915500,1.62091552734375,0.7005510330200195,0.025826692581176758,0.26345181465148926
1700822863318887700,1.6308876953125,2.824580192565918,0.4957420825958252,0.904496431350708
1700822863328891400,1.640891357421875,-1.6158103942871094,0.20843946933746338,1.9181113243103027
1700822863338937000,1.65093701171875,-1.8337664604187012,0.11300146579742432,0.7498424053192139
1700822863348976000,1.66097607421875,-1.3510246276855469,0.021592140197753906,0.22902512550354004
1700822863358924000,1.670924072265625,-0.596430778503418,-0.19354236125946045,0.937454342842102
1700822863368924000,1.680923828125,-0.10733413696289062,-0.12581658363342285,1.4149349927902222
1700822863378909400,1.690909423828125,1.2511253356933594,-1.2492516040802002,0.6417783498764038
1700822863388894200,1.700894287109375,2.3195619583129883,-1.8353500366210938,0.023898839950561523
1700822863398958600,1.71095849609375,1.799407958984375,-1.6792782545089722,-1.0009551048278809
1700822863408968200,1.72096826171875,1.8606719970703125,-1.7284443378448486,-1.5066155195236206
1700822863418954800,1.730954833984375,1.1471023559570312,-1.7895560264587402,-1.3891239166259766
1700822863428913000,1.740912841796875,0.23014450073242188,-1.4307632446289062,-0.9585298299789429
1700822863438867000,1.750866943359375,-0.0538330078125,-0.7145603895187378,-0.06896114349365234
1700822863448873000,1.760873046875,0.04952049255371094,0.13661456108093262,0.473163366317749
1700822863459117600,1.77111767578125,0.3485536575317383,0.9480955600738525,1.5975134372711182
1700822863469058800,1.781058837890625,0.7232990264892578,1.0491811037063599,1.8505613803863525
1700822863479028500,1.791028564453125,1.4704046249389648,0.43638813495635986,1.4447648525238037
1700822863489020700,1.801020751953125,1.5026988983154297,-0.2386094331741333,1.1138274669647217
1700822863498982000,1.81098193359375,0.8003368377685547,-0.674933671951294,0.4682631492614746
1700822863509171500,1.82117138671875,0.2534065246582031,-1.0894687175750732,-0.7489187717437744
1700822863519079700,1.83107958984375,-0.23245811462402344,-1.131923794746399,-1.553218960762024
1700822863529029400,1.841029296875,-0.4352235794067383,-1.1098761558532715,-1.792612075805664
1700822863539004700,1.851004638671875,-0.5358638763427734,-0.303497314453125,-0.9310687780380249
1700822863548934000,1.860933837890625,-0.4769754409790039,1.0486009120941162,0.5177569389343262
1700822863559095800,1.871095703125,-0.3339214324951172,2.1457839012145996,1.1626532077789307
1700822863568984800,1.88098486328125,-0.5271005630493164,2.4557876586914062,1.2245028018951416
1700822863578926600,1.890926513671875,-1.4933700561523438,1.9443778991699219,1.0202150344848633
1700822863588821200,1.9008212890625,-1.8226075172424316,1.2144858837127686,0.5119824409484863
1700822863598909700,1.91090966796875,-1.7797484397888184,0.7409329414367676,0.5292644500732422
1700822863608904200,1.920904296875,-1.2298121452331543,0.41410326957702637,0.4796595573425293
1700822863618953700,1.93095361328125,-0.8816089630126953,0.3417360782623291,0.42449450492858887
1700822863628843300,1.94084326171875,-1.3282456398010254,0.4933779239654541,0.4451329708099365
1700822863638784300,1.9507841796875,-0.9912691116333008,0.10844826698303223,0.4978330135345459
1700822863648813000,1.96081298828125,0.8449058532714844,-0.27930712699890137,0.9849753379821777
1700822863658803500,1.970803466796875,-0.08282661437988281,0.10554146766662598,1.0243840217590332
1700822863668910800,1.980910888671875,0.1719512939453125,1.2867774963378906,0.8400838375091553
1700822863678833000,1.9908330078125,0.354034423828125,1.563704013824463,0.3371124267578125
1700822863688857300,2.000857421875,-0.7958316802978516,0.7561511993408203,0.3106691837310791
1700822863698868200,2.0108681640625,-1.1175289154052734,-0.8859007358551025,0.4971914291381836
1700822863708880100,2.020880126953125,-0.8970613479614258,-1.5955555438995361,0.6003639698028564
1700822863718970600,2.030970703125,-1.9970245361328125,-1.538860559463501,-0.30248188972473145
1700822863728992800,2.04099267578125,-2.64583158493042,-1.4203500747680664,-1.0665838718414307
1700822863739001300,2.05100146484375,-0.8436040878295898,-1.125622272491455,0.049210309982299805
1700822863748939300,2.060939208984375,0.8127107620239258,-0.13744688034057617,2.068983316421509
1700822863758978000,2.07097802734375,2.5124197006225586,0.08484411239624023,3.159268617630005
1700822863768976600,2.0809765625,3.345224380493164,-1.4079726934432983,1.612572193145752
1700822863778933800,2.090933837890625,1.4219141006469727,-1.9392657279968262,0.7442400455474854
1700822863788948500,2.100948486328125,0.7185764312744141,-1.9416799545288086,-0.1929614543914795
1700822863798935300,2.110935302734375,0.6481246948242188,-1.6915216445922852,-0.2660372257232666
1700822863809081600,2.12108154296875,0.20682907104492188,-1.5736955404281616,0.47001171112060547
1700822863818999800,2.130999755859375,-0.5743846893310547,-0.9709537029266357,2.483724594116211
1700822863828880000,2.1408798828125,-1.418081283569336,-0.8730908632278442,4.055807113647461
1700822863838828000,2.150828125,-3.271158218383789,-1.539374828338623,3.827932357788086
1700822863848804900,2.160804931640625,-4.165745735168457,-2.6649389266967773,2.2025880813598633
1700822863858845000,2.170844970703125,-3.16156005859375,-4.095919132232666,-1.880049467086792
1700822863868922000,2.180922119140625,-1.7030029296875,-3.8431124687194824,-4.521438121795654
1700822863878934500,2.1909345703125,-0.7905807495117188,-2.7460339069366455,-3.4350790977478027
1700822863888831200,2.200831298828125,-0.33681249618530273,-1.3858360052108765,-0.10852622985839844
1700822863898808600,2.21080859375,-0.3572511672973633,-0.20020751655101776,2.7630109786987305
1700822863909122800,2.221122802734375,-0.869659423828125,0.4395628571510315,5.043150901794434
1700822863918972000,2.230971923828125,-1.34830904006958,0.8540322780609131,5.9899210929870605
1700822863928869400,2.240869384765625,-2.251333713531494,0.6415684223175049,5.416218280792236
1700822863938815200,2.250815185546875,-3.5686912536621094,-0.8981125354766846,3.2311134338378906
1700822863948824000,2.260823974609375,-4.902248859405518,-2.920565366744995,0.08475112915039062
1700822863958953500,2.270953369140625,-3.813892126083374,-3.527155876159668,-1.3678345680236816
1700822863968920300,2.28092041015625,-0.4973611831665039,-0.9058456420898438,-0.007042884826660156
1700822863978907100,2.2909072265625,0.7576208114624023,2.3199644088745117,1.9950861930847168
1700822863988874000,2.3008740234375,1.8846220970153809,3.986429214477539,2.6854777336120605
1700822863998783000,2.310782958984375,2.6853604316711426,4.803088188171387,1.859684944152832
1700822864009070000,2.321070068359375,1.657186508178711,3.9209604263305664,0.14943313598632812
1700822864018931000,2.330930908203125,0.6823854446411133,2.1516997814178467,-1.5518321990966797
1700822864028897000,2.34089697265625,-0.29627275466918945,1.150193452835083,-2.2196292877197266
1700822864038944500,2.350944580078125,-0.9254989624023438,0.9555706977844238,-1.4034619331359863
1700822864048937700,2.360937744140625,-0.9471955299377441,1.2886782884597778,-0.12983417510986328
1700822864059080000,2.371079833984375,-1.1502814292907715,1.8311054706573486,0.8653984069824219
1700822864068944000,2.38094384765625,-1.2558283805847168,3.106193780899048,1.8603801727294922
1700822864078896400,2.390896484375,2.136795997619629,3.527573585510254,1.788045883178711
1700822864088899300,2.4008994140625,2.2064127922058105,3.2384109497070312,0.4604349136352539
1700822864098963200,2.410963134765625,1.8628125190734863,2.1949522495269775,-0.8105754852294922
1700822864108980500,2.42098046875,1.6602888107299805,1.0698368549346924,-0.9171047210693359
1700822864119212300,2.43121240234375,1.5930500030517578,0.7717256546020508,0.24948692321777344
1700822864129001200,2.441001220703125,1.7390542030334473,0.881850004196167,1.4657878875732422
1700822864138896100,2.450896240234375,2.2941384315490723,1.232494831085205,2.3059935569763184
1700822864148798000,2.4607978515625,2.0871729850769043,2.105445146560669,2.462623119354248
1700822864158783000,2.470782958984375,2.1743597984313965,2.886486291885376,1.9291019439697266
1700822864168801500,2.480801513671875,2.5538430213928223,3.091763496398926,0.8160767555236816
1700822864178821600,2.490821533203125,2.849090099334717,2.933140754699707,-0.7055621147155762
1700822864188778000,2.500778076171875,3.119645118713379,2.6109561920166016,-1.8638291358947754
1700822864198763000,2.510762939453125,3.3099706172943115,2.152409553527832,-2.0003042221069336
1700822864208803600,2.520803466796875,2.927647590637207,1.8337230682373047,-1.701314926147461
1700822864218915800,2.530915771484375,2.0897107124328613,1.9856301546096802,-1.6117620468139648
1700822864228802300,2.54080224609375,1.350224494934082,1.9544868469238281,-1.863722801208496
1700822864238816800,2.550816650390625,0.6091403961181641,1.0848143100738525,-2.94395112991333
1700822864248831200,2.560831298828125,-0.29054713249206543,0.31183457374572754,-3.8320584297180176
1700822864258842600,2.570842529296875,-0.6603190898895264,0.39427900314331055,-4.267435073852539
1700822864268893400,2.5808935546875,1.3336560726165771,0.4800856113433838,-3.6103110313415527
1700822864278871600,2.59087158203125,3.4929378032684326,1.1512970924377441,-2.3327927589416504
1700822864288895700,2.600895751953125,3.009019374847412,1.5775556564331055,-2.348620891571045
1700822864298888400,2.610888427734375,1.5594396591186523,1.2211544513702393,-2.9066896438598633
1700822864308973800,2.620973876953125,-0.32811927795410156,0.6001439094543457,-1.48057222366333
1700822864318881800,2.6308818359375,1.2775917053222656,0.07419443130493164,-0.24410724639892578
1700822864328907500,2.640907470703125,1.0856578350067139,-0.5334415435791016,-0.2075214385986328
1700822864338914800,2.650914794921875,-1.9328703880310059,-0.6622405052185059,0.16941070556640625
1700822864348926500,2.660926513671875,-2.904309034347534,-1.0252585411071777,0.8208093643188477
1700822864358900700,2.670900634765625,-2.8574862480163574,-0.6636075973510742,2.1374588012695312
1700822864368883000,2.680883056640625,-1.4449656009674072,-0.06971597671508789,3.579090118408203
1700822864378868000,2.690867919921875,0.03214740753173828,0.8026714324951172,4.26308536529541
1700822864388869400,2.700869384765625,1.9629871845245361,1.3731048107147217,1.5794153213500977
1700822864398855700,2.710855712890625,2.0887837409973145,1.4395391941070557,0.3588724136352539
1700822864408888800,2.720888916015625,1.6493415832519531,1.512145757675171,0.6293878555297852
1700822864418801400,2.730801513671875,0.9615530967712402,0.9243535995483398,0.9609775543212891
1700822864428995800,2.740995849609375,0.13251638412475586,0.5493011474609375,0.9501810073852539
1700822864438978800,2.750978759765625,-1.357875108718872,-0.5468134880065918,0.0895547866821289
1700822864449001500,2.76100146484375,-2.137645959854126,-1.2233624458312988,-1.1993131637573242
1700822864459059700,2.771059814453125,-1.235087513923645,-1.9029064178466797,-2.4946751594543457
1700822864468974800,2.780974853515625,0.8678618669509888,-1.3996992111206055,-1.5130062103271484
1700822864478924800,2.7909248046875,0.9659972190856934,-0.8825912475585938,-0.24054813385009766
1700822864488957400,2.80095751953125,-0.15767860412597656,-0.8188986778259277,0.7073049545288086
1700822864498913800,2.810913818359375,-1.7212250232696533,-1.1593599319458008,1.171895980834961
1700822864508913400,2.820913330078125,-1.4293946027755737,-1.1886649131774902,1.0764541625976562
1700822864518948000,2.830947998046875,-0.28489744663238525,-0.6444225311279297,-0.026688575744628906
1700822864528911000,2.8409111328125,-0.44658201932907104,0.48517274856567383,-0.2647991180419922
1700822864538912000,2.850912109375,-1.7828919887542725,1.1068005561828613,-0.9414515495300293
1700822864548886500,2.860886474609375,-1.356502890586853,-0.11876201629638672,-1.5910568237304688
1700822864559138300,2.87113818359375,-1.2352335453033447,-0.5155253410339355,-0.7932004928588867
1700822864569120300,2.881120361328125,-1.1174904108047485,-0.4413003921508789,0.7776823043823242
1700822864579027000,2.89102685546875,-1.396405577659607,-0.10874652862548828,1.7130088806152344
1700822864588857600,2.900857666015625,0.4322493076324463,0.619504451751709,3.1023521423339844
1700822864599034400,2.911034423828125,0.6889742612838745,1.7477312088012695,2.7767019271850586
1700822864608865500,2.920865478515625,-0.8364304304122925,1.8343710899353027,0.7903518676757812
1700822864618852900,2.930852783203125,-0.8235148191452026,2.569998264312744,-0.34513187408447266
1700822864628826400,2.940826416015625,-0.15810264647006989,2.9982895851135254,-0.5039138793945312
1700822864638811600,2.950811767578125,-0.44671911001205444,1.15977144241333,-1.8669981956481934
1700822864649593900,2.96159375,0.9247711896896362,-0.13464927673339844,-2.322216510772705
1700822864659216400,2.97121630859375,2.1941986083984375,-0.43717050552368164,-1.6490836143493652
1700822864669097700,2.98109765625,2.8044722080230713,-0.011837482452392578,-0.5470094680786133
1700822864678978300,2.990978271484375,0.4454317092895508,0.4931631088256836,1.3745975494384766
1700822864689008600,3.001008544921875,-2.4616501331329346,1.4243111610412598,3.5430541038513184
1700822864698952400,3.010952392578125,1.4306459426879883,1.8573756217956543,3.500542640686035
1700822864708844300,3.02084423828125,0.9220166206359863,1.5379700660705566,2.4987282752990723
1700822864718865700,3.03086572265625,-0.6095592975616455,0.5441489219665527,0.10664749145507812
1700822864728813300,3.040813232421875,0.5124009847640991,0.7520303726196289,-0.8653483390808105
1700822864738834700,3.050834716796875,1.338881254196167,1.337491512298584,-1.0489068031311035
1700822864748796400,3.06079638671875,1.4371528625488281,0.28281164169311523,-1.435819149017334
1700822864758802700,3.070802734375,-0.23460108041763306,-1.2938232421875,-3.047482490539551
1700822864768852200,3.080852294921875,0.0888204574584961,-2.1593804359436035,-2.7207112312316895
1700822864778823200,3.0908232421875,0.6800147294998169,-0.8822898864746094,0.5274930000305176
1700822864788929000,3.100928955078125,0.6608604192733765,-0.685053825378418,2.522594928741455
1700822864798863000,3.110863037109375,-1.4600398540496826,-0.5905661582946777,3.4512252807617188
1700822864808771000,3.12077099609375,-2.207348346710205,-0.6093192100524902,2.6543021202087402
1700822864818833400,3.13083349609375,-1.2945163249969482,-1.2404217720031738,1.6337542533874512
1700822864829155800,3.14115576171875,-0.20988574624061584,-1.8007712364196777,0.23302841186523438
1700822864839219500,3.151219482421875,0.15528374910354614,-1.1726350784301758,-0.6715350151062012
1700822864848919300,3.160919189453125,0.45233458280563354,-0.9676947593688965,-1.4258084297180176
1700822864858855700,3.170855712890625,1.001308798789978,0.011560916900634766,-0.8752017021179199
1700822864868873200,3.180873291015625,0.8081062436103821,0.19818878173828125,0.2912259101867676
1700822864878836700,3.190836669921875,-0.11542582511901855,0.5672116279602051,1.895193099975586
1700822864888797400,3.20079736328125,-1.1451938152313232,0.2178492546081543,2.418323040008545
1700822864898821000,3.210821044921875,-1.5672212839126587,-0.4196786880493164,1.5290989875793457
1700822864908825600,3.22082568359375,-0.7857347726821899,-0.2065882682800293,0.4860343933105469
1700822864918945300,3.2309453125,0.39177119731903076,0.1903848648071289,-0.29227304458618164
1700822864928792600,3.24079248046875,1.057377815246582,0.28676605224609375,-0.6839051246643066
1700822864938782200,3.2507822265625,0.6770964860916138,0.7324161529541016,-0.25717592239379883
1700822864948759600,3.260759521484375,0.7770482301712036,0.3387322425842285,-0.17336320877075195
1700822864958801400,3.270801513671875,1.1150920391082764,0.11017990112304688,-0.17051219940185547
1700822864968826600,3.28082666015625,0.8713710308074951,0.1722865104675293,-0.16635656356811523
1700822864978854000,3.29085400390625,-1.1481497287750244,0.1327495574951172,0.23211288452148438
1700822864988885500,3.300885498046875,-2.316253900527954,0.20411968231201172,0.8638105392456055
1700822864998898200,3.310898193359375,-1.8499042987823486,0.16574573516845703,1.3880882263183594
1700822865008967700,3.3209677734375,-0.13149845600128174,-0.16428232192993164,1.0327754020690918
1700822865018844000,3.330843994140625,-1.1853058338165283,0.8238725662231445,1.621047019958496
1700822865028929800,3.3409296875,-1.0584876537322998,2.2821693420410156,2.4451565742492676
1700822865039420000,3.351419921875,-2.928640604019165,4.034610271453857,4.270903587341309
1700822865049143000,3.36114306640625,-3.083547592163086,3.5585930347442627,6.1373395919799805
1700822865059553000,3.371552978515625,-1.2173100709915161,2.3166584968566895,6.306877136230469
1700822865069132500,3.381132568359375,-2.9955575466156006,-1.4609718322753906,-5.768686294555664
1700822865079047700,3.391047607421875,-1.3931198120117188,-4.159718036651611,-14.355961799621582
1700822865089497900,3.401497802734375,12.313051223754883,-0.675788402557373,-4.1966705322265625
1700822865099134000,3.411134033203125,4.331399917602539,2.113663673400879,0.11286401748657227
1700822865109064400,3.421064453125,-3.985346555709839,2.1385726928710938,-0.28647422790527344
1700822865118960600,3.430960693359375,-3.489287853240967,2.228123903274536,0.20173406600952148
1700822865128918300,3.440918212890625,-1.012000322341919,2.386624574661255,1.5485668182373047
1700822865138936600,3.4509365234375,0.8507555723190308,2.276437759399414,2.372408390045166
1700822865148930800,3.460930908203125,1.1336653232574463,1.701467514038086,2.458496570587158
1700822865159070000,3.471070068359375,0.564689040184021,0.7864952087402344,1.9508981704711914
1700822865168964400,3.48096435546875,0.11452040076255798,-0.21886920928955078,1.2484102249145508
1700822865178829300,3.490829345703125,0.05482054501771927,-1.2883610725402832,0.6084775924682617
1700822865189182700,3.5011826171875,-0.08967004716396332,-2.1275343894958496,0.3214130401611328
1700822865198936300,3.510936279296875,-0.639423668384552,-2.6049909591674805,0.3499488830566406
1700822865208792600,3.52079248046875,-1.1419914960861206,-2.658529758453369,0.38693666458129883
1700822865218805800,3.5308056640625,-1.6425299644470215,-0.7536673545837402,0.7272610664367676
1700822865228801000,3.540801025390625,-0.045602649450302124,0.38315248489379883,0.8504467010498047
1700822865238819000,3.550819091796875,1.1028385162353516,0.7225980758666992,0.06716585159301758
1700822865248850000,3.560849853515625,0.7360100746154785,0.8662409782409668,-0.44256019592285156
1700822865258818600,3.570818603515625,-0.20817133784294128,0.6584529876708984,-0.46214771270751953
1700822865268804900,3.580804931640625,-1.1008397340774536,0.3282618522644043,0.06561613082885742
1700822865278806300,3.59080615234375,-1.4459973573684692,-0.09400081634521484,0.5613946914672852
1700822865288845300,3.60084521484375,-1.3071908950805664,-0.26013708114624023,0.8291521072387695
1700822865298846200,3.61084619140625,-0.7136456966400146,-0.19933032989501953,0.6172404289245605
1700822865308918500,3.62091845703125,-0.18562808632850647,0.008158206939697266,0.3297085762023926
1700822865318950700,3.63095068359375,-0.28332680463790894,0.4158449172973633,-0.1418900489807129
1700822865328827400,3.640827392578125,-0.6620852947235107,0.3487715721130371,-0.15119123458862305
1700822865338844200,3.65084423828125,-0.8599980473518372,0.20889949798583984,-0.058876991271972656
1700822865348918500,3.66091845703125,-0.8428236246109009,0.09282445907592773,0.11928939819335938
1700822865358942700,3.670942626953125,-0.6855895519256592,0.022681713104248047,0.3445920944213867
1700822865368875000,3.680875,-0.49312108755111694,-0.010764598846435547,0.4658517837524414
1700822865378914600,3.69091455078125,-0.15821895003318787,0.022488117218017578,0.48032426834106445
1700822865389043700,3.701043701171875,-0.029360532760620117,0.161163330078125,0.4067564010620117
1700822865399016000,3.711015869140625,-0.04619884490966797,0.3226165771484375,0.19939470291137695
1700822865408941300,3.72094140625,-0.12896889448165894,0.4456667900085449,0.04513883590698242
1700822865418841600,3.730841552734375,-0.16666066646575928,0.4357724189758301,0.09696388244628906
1700822865428798500,3.740798583984375,-0.12959259748458862,0.2908649444580078,0.3009486198425293
1700822865438934800,3.750934814453125,-0.10073769092559814,0.13572406768798828,0.5294370651245117
1700822865448934400,3.760934326171875,0.1205243468284607,-0.02926492691040039,0.6323847770690918
1700822865458962700,3.770962646484375,0.2346516251564026,-0.02582406997680664,0.7395930290222168
1700822865468968400,3.780968505859375,0.3988035321235657,-0.022581100463867188,0.512873649597168
1700822865478856200,3.790856201171875,0.39673954248428345,0.19213104248046875,0.26669740676879883
1700822865488827100,3.8008271484375,0.39751285314559937,0.3757963180541992,0.1041107177734375
1700822865498781000,3.810781005859375,0.3281669318675995,0.4189720153808594,0.005421161651611328
1700822865508883000,3.820883056640625,0.0374847948551178,0.45273351669311523,0.0764913558959961
1700822865518877400,3.83087744140625,-0.13511046767234802,0.32006216049194336,0.1152191162109375
1700822865528878800,3.84087890625,-0.11548921465873718,0.027851581573486328,0.05001640319824219
1700822865538830800,3.850830810546875,-0.07496261596679688,-0.09229278564453125,0.03756856918334961
1700822865548740400,3.860740234375,0.005438387393951416,-0.10337543487548828,0.03222179412841797
1700822865558721300,3.87072119140625,0.13111701607704163,-0.14044809341430664,-0.09664297103881836
1700822865568661000,3.880660888671875,0.26977264881134033,-0.14875507354736328,-0.19054937362670898
1700822865578666500,3.89066650390625,0.2734954357147217,-0.11619186401367188,-0.2547740936279297
1700822865588664300,3.900664306640625,0.04778817296028137,-0.07148361206054688,-0.39499568939208984
1700822865598726100,3.91072607421875,-0.14614799618721008,-0.023535728454589844,-0.3640127182006836
1700822865608718600,3.920718505859375,-0.23374739289283752,-0.04533100128173828,-0.22672653198242188
1700822865618783200,3.930783203125,-0.10800212621688843,-0.14709234237670898,-0.09387350082397461
1700822865628822000,3.940822021484375,0.2177811563014984,-0.2715492248535156,0.017343997955322266
1700822865638780700,3.95078076171875,0.2952016592025757,-0.233367919921875,-0.013398170471191406
1700822865648827000,3.960826904296875,0.20258069038391113,-0.12526416778564453,-0.012988567352294922
1700822865658801400,3.970801513671875,0.07822304964065552,-0.02189016342163086,-0.06256914138793945
1700822865668756200,3.980756103515625,-0.016799747943878174,0.070404052734375,0.01938486099243164
1700822865678769200,3.99076904296875,-0.7706284523010254,1.3134942054748535,-0.2953176498413086
1700822865688770000,4.00077001953125,0.4238455891609192,1.6194334030151367,-0.4034242630004883
1700822865698779100,4.010779052734375,0.6856956481933594,1.4993963241577148,0.2570462226867676
1700822865708789000,4.0207890625,-0.1561269760131836,1.127272129058838,0.4784402847290039
1700822865718845000,4.030844970703125,0.02030453085899353,0.6862692832946777,0.43596982955932617
1700822865728849000,4.040848876953125,0.5517424941062927,0.10735845565795898,0.29033946990966797
1700822865738841000,4.050841064453125,0.31085342168807983,-0.044829368591308594,0.20131492614746094
1700822865748906500,4.060906494140625,-0.20623159408569336,0.4305558204650879,0.16223955154418945
1700822865758934300,4.070934326171875,-1.0797936916351318,1.3101849555969238,0.06938028335571289
1700822865768900000,4.080900146484375,-1.7556039094924927,1.7664923667907715,-0.2235884666442871
1700822865778856400,4.0908564453125,-1.545193076133728,1.709146499633789,-0.34883689880371094
1700822865788785000,4.100784912109375,-1.0011918544769287,1.6989927291870117,0.057682037353515625
1700822865798801000,4.11080078125,-0.3311643898487091,0.9944462776184082,0.48894166946411133
1700822865808813600,4.1208134765625,0.7691454887390137,-0.3534989356994629,0.6125936508178711
1700822865818896100,4.130896240234375,1.2421154975891113,-1.958223819732666,0.2914261817932129
1700822865828949000,4.140948974609375,1.712957739830017,-2.5130796432495117,0.19070005416870117
1700822865838847000,4.150846923828125,1.4311842918395996,-1.750837802886963,0.3890104293823242
1700822865848858600,4.160858642578125,0.5038543939590454,-0.04402637481689453,0.5457096099853516
1700822865858878200,4.170878173828125,-0.70817631483078,1.5797743797302246,0.3423118591308594
1700822865868850200,4.18085009765625,-1.0875883102416992,2.6800975799560547,-0.11426639556884766
1700822865878830000,4.190830078125,-0.7931792140007019,3.091188430786133,-0.4393911361694336
1700822865889131500,4.201131591796875,-0.6788854002952576,2.6547322273254395,-0.6279220581054688
1700822865898967300,4.21096728515625,-0.4351379871368408,1.4570140838623047,-0.7477512359619141
1700822865908959200,4.220959228515625,0.20920920372009277,-0.1462240219116211,-0.9537878036499023
1700822865918945500,4.230945556640625,0.7471989989280701,-2.189126491546631,-1.2017250061035156
1700822865928972800,4.240972900390625,1.4879794120788574,-3.6709365844726562,-1.1650123596191406
1700822865938883800,4.2508837890625,1.4580676555633545,-2.2950515747070312,0.6323542594909668
1700822865948817400,4.2608173828125,0.45643097162246704,-0.9463996887207031,1.315730094909668
1700822865958798300,4.27079833984375,0.991427481174469,0.7024312019348145,1.5125980377197266
1700822865968794000,4.280794189453125,0.9461500644683838,2.826469659805298,2.2396721839904785
1700822865978795000,4.290794921875,0.03308743238449097,2.166600227355957,1.9563894271850586
1700822865988790000,4.3007900390625,-0.4363193213939667,0.03622293472290039,1.1560606956481934
1700822865998850000,4.31085009765625,-0.09167757630348206,-1.0715594291687012,0.968775749206543
1700822866008888000,4.32088818359375,0.20030105113983154,-2.447336196899414,0.5284566879272461
1700822866018921500,4.33092138671875,1.4655338525772095,-3.248236656188965,-0.3835601806640625
1700822866028839700,4.340839599609375,2.7952911853790283,-2.4007134437561035,-1.1394495964050293
1700822866038848000,4.350847900390625,1.8242127895355225,-0.622657299041748,-0.8469600677490234
1700822866048908000,4.360907958984375,-1.6045809984207153,1.586449146270752,1.0611639022827148
1700822866058797600,4.370797607421875,-2.8805882930755615,2.3226702213287354,2.0086441040039062
1700822866068818200,4.380818115234375,-2.800647258758545,-0.2923426628112793,-0.02221965789794922
1700822866078823700,4.39082373046875,-1.9613533020019531,-2.3895092010498047,-1.9654865264892578
1700822866088779300,4.400779296875,-1.3797277212142944,-2.908926010131836,-2.5887255668640137
1700822866098842000,4.410842041015625,-1.5161136388778687,-2.4297800064086914,-1.9691200256347656
1700822866108974000,4.42097412109375,-1.8814321756362915,-1.088608741760254,-0.5953927040100098
1700822866118939100,4.430939208984375,-2.4814794063568115,-0.37788820266723633,0.45578575134277344
1700822866128822500,4.440822509765625,-2.459385871887207,-0.17368459701538086,0.8533315658569336
1700822866138853600,4.450853515625,-1.777937889099121,0.28499460220336914,0.7654876708984375
1700822866148844300,4.46084423828125,-0.8850765824317932,0.19931316375732422,0.40518665313720703
1700822866158773800,4.470773681640625,-0.35240301489830017,-0.04092884063720703,0.3574819564819336
1700822866168864800,4.48086474609375,0.8164590001106262,-0.39294910430908203,0.12353706359863281
1700822866178847500,4.490847412109375,2.6394641399383545,-0.6120166778564453,0.008078575134277344
1700822866188876800,4.500876708984375,4.334689140319824,-0.684511661529541,-0.12082958221435547
1700822866198871300,4.510871337890625,5.541615962982178,-0.0058689117431640625,0.29172229766845703
1700822866209460700,4.521460693359375,4.060129165649414,0.31588268280029297,0.688206672668457
1700822866219185000,4.531184814453125,1.2358908653259277,0.4313020706176758,0.5396823883056641
1700822866229145300,4.541145263671875,-1.1689215898513794,0.7882452011108398,0.0075836181640625
1700822866238989300,4.5509892578125,-2.014496326446533,1.6906139850616455,-0.46228981018066406
1700822866248831000,4.5608310546875,-2.3395447731018066,3.177208423614502,-0.28861236572265625
1700822866258764000,4.570763916015625,-1.7434972524642944,2.6690878868103027,-0.7009563446044922
1700822866268803000,4.580802978515625,0.3066185712814331,-0.03214120864868164,-1.013747215270996
1700822866278866000,4.590865966796875,1.1543617248535156,-2.0932540893554688,-0.43265819549560547
1700822866288782600,4.600782470703125,1.115278959274292,-2.242056369781494,0.7643709182739258
1700822866298728200,4.610728271484375,1.6150603294372559,-0.7947678565979004,2.005030632019043
1700822866308763100,4.62076318359375,0.8425661325454712,0.07990360260009766,2.4018306732177734
1700822866318696000,4.630696044921875,-0.21527999639511108,0.35061049461364746,2.1977357864379883
1700822866328715500,4.640715576171875,-0.8356056213378906,-0.11340904235839844,1.6034212112426758
1700822866338731800,4.650731689453125,0.3826303482055664,-1.8699901103973389,-1.103785514831543
1700822866348740900,4.660740966796875,4.924952983856201,0.6089584827423096,-2.279768466949463
1700822866358751000,4.6707509765625,2.687453269958496,0.9740264415740967,-2.8326363563537598
1700822866368759600,4.680759521484375,-0.024054884910583496,0.6474959850311279,-3.222032070159912
1700822866378806300,4.69080615234375,0.6143021583557129,-0.20754551887512207,-2.754934310913086
1700822866388805600,4.7008056640625,2.394192934036255,-1.2380430698394775,-1.163064956665039
1700822866398857200,4.710857177734375,2.106491804122925,-2.8432083129882812,0.5746850967407227
1700822866408850200,4.72085009765625,0.38820260763168335,-3.249525308609009,2.35107421875
1700822866418864600,4.73086474609375,-1.3250555992126465,-1.0798370838165283,3.647005081176758
1700822866428761900,4.740761962890625,-2.289572238922119,-0.6155738830566406,3.024599075317383
1700822866438838300,4.75083837890625,-2.345123291015625,0.13358736038208008,1.887481689453125
1700822866448816600,4.760816650390625,-2.2306699752807617,0.39801740646362305,0.7266969680786133
1700822866458751000,4.7707509765625,-1.327385425567627,0.4759988784790039,-0.2001972198486328
1700822866468697300,4.780697265625,-0.13807225227355957,0.3447272777557373,-0.751002311706543
1700822866478801700,4.7908017578125,1.113641619682312,0.5081675052642822,-0.7693700790405273
1700822866488780800,4.80078076171875,0.9289467930793762,1.6588106155395508,-0.33943843841552734
1700822866498801400,4.810801513671875,-0.3667938709259033,2.031515598297119,-0.1417694091796875
1700822866508737300,4.8207373046875,-1.2344096899032593,1.3812837600708008,0.20307159423828125
1700822866519755000,4.831755126953125,-1.7235603332519531,-2.7884960174560547,-0.4261951446533203
1700822866529260500,4.841260498046875,-1.6318161487579346,-2.8687491416931152,-0.44273853302001953
1700822866539016200,4.85101611328125,-1.1510049104690552,-2.410255193710327,-0.520930290222168
1700822866548905700,4.86090576171875,-1.4594453573226929,-1.9090986251831055,-0.011544227600097656
1700822866558824700,4.87082470703125,-0.976414680480957,-0.9814052581787109,0.8865671157836914
1700822866568931300,4.880931396484375,-0.3929096460342407,1.3796107769012451,1.9643220901489258
1700822866578827800,4.890827880859375,-0.5381850004196167,1.1502214670181274,1.4887714385986328
1700822866588876800,4.900876708984375,-0.12384617328643799,0.04991626739501953,-0.2887840270996094
1700822866598884900,4.910884765625,0.49083411693573,-1.156301736831665,-1.4498987197875977
1700822866608789000,4.9207890625,2.018287420272827,-2.7103660106658936,-2.2089619636535645
1700822866619033900,4.931033935546875,4.328461170196533,-2.240694999694824,-1.9902992248535156
1700822866628945400,4.9409453125,5.025617599487305,-0.20723605155944824,-0.7044868469238281
1700822866638814200,4.950814208984375,2.9600253105163574,0.421022891998291,0.32439517974853516
1700822866648881700,4.960881591796875,1.7628380060195923,1.0940706729888916,0.6533956527709961
1700822866658936300,4.970936279296875,0.06023275852203369,1.035332202911377,0.9396457672119141
1700822866668968200,4.98096826171875,-0.9246400594711304,-0.1802968978881836,0.6988229751586914
1700822866678934500,4.9909345703125,-0.9823534488677979,-0.30580568313598633,0.5457277297973633
1700822866688909800,5.000909912109375,-1.231726884841919,-0.19328665733337402,0.22117328643798828
1700822866698869000,5.010868896484375,-0.9909173250198364,-0.14513301849365234,-0.0016326904296875
1700822866708941000,5.020941162109375,-0.2552163600921631,-1.4200851917266846,-0.26100921630859375
1700822866719055400,5.031055419921875,1.153555154800415,-1.5950050354003906,-0.017423629760742188
1700822866728920800,5.0409208984375,1.5554753541946411,-0.7282401323318481,0.6385927200317383
1700822866738912300,5.050912353515625,0.9269639849662781,0.6758721470832825,1.3805122375488281
1700822866748902100,5.060902099609375,0.7459311485290527,1.447678565979004,1.4443588256835938
1700822866758897200,5.070897216796875,0.7520827054977417,1.3130217790603638,0.975590705871582
1700822866768900600,5.080900634765625,0.4039524793624878,1.3739248514175415,0.6565513610839844
1700822866778960400,5.09096044921875,-0.5415064096450806,0.7840489745140076,0.17139816284179688
1700822866788911000,5.1009111328125,-0.656481146812439,0.2020564079284668,-0.31003379821777344
1700822866798898700,5.110898681640625,-0.30500173568725586,-0.26715171337127686,-0.3548097610473633
1700822866808854800,5.120854736328125,-0.4951437711715698,-0.143576979637146,-0.0959463119506836
1700822866820713000,5.132712890625,-0.9319384098052979,0.682928204536438,0.6129179000854492
1700822866829849300,5.141849365234375,-1.5161306858062744,0.5642024874687195,1.5014562606811523
1700822866839424300,5.15142431640625,-1.5341964960098267,0.1840153932571411,2.0278263092041016
1700822866849124600,5.16112451171875,-1.0638794898986816,0.08370530605316162,2.1345443725585938
1700822866858934800,5.170934814453125,0.1422111988067627,0.14969021081924438,1.8185443878173828
1700822866868878300,5.18087841796875,0.9253180623054504,-0.22494065761566162,1.277237892150879
1700822866878871300,5.190871337890625,1.098049521446228,-0.9369999766349792,0.5616998672485352
1700822866888837000,5.200837158203125,-0.05548393726348877,-1.4685006141662598,0.07135677337646484
1700822866898839000,5.210839111328125,0.1560347080230713,-1.0177417993545532,-0.5851984024047852
1700822866908821000,5.220821044921875,0.3744581341743469,-0.1092567890882492,-0.9968690872192383
1700822866918763500,5.230763427734375,-0.4079735279083252,-0.5061217546463013,-1.6298141479492188
1700822866928750800,5.240750732421875,-1.2741268873214722,-0.6125491261482239,-1.5989007949829102
1700822866938705000,5.250704833984375,-0.44470369815826416,-0.4937315881252289,-1.5289058685302734
1700822866948663000,5.2606630859375,0.5605330467224121,-0.005999825894832611,-1.1372814178466797
1700822866958754600,5.270754638671875,1.0310691595077515,0.8247449398040771,-0.5782747268676758
1700822866968769800,5.280769775390625,1.2385715246200562,1.7290213108062744,0.3009624481201172
1700822866978824000,5.290823974609375,1.231188416481018,2.1698405742645264,1.195591926574707
1700822866988834800,5.300834716796875,0.5952665209770203,2.231191635131836,2.0419445037841797
1700822866998859500,5.310859619140625,-0.3725935220718384,1.3743407726287842,2.3309221267700195
1700822867008884200,5.32088427734375,-0.8574615716934204,0.7037477493286133,2.1733312606811523
1700822867018922200,5.330922119140625,-1.5353600978851318,-0.02670300006866455,1.3348007202148438
1700822867028923100,5.340923095703125,-2.678101062774658,-0.6761611700057983,0.10939216613769531
1700822867038892500,5.350892578125,-2.731199264526367,-1.0341957807540894,-1.3827457427978516
1700822867048831700,5.360831787109375,-2.740694999694824,-0.7852141857147217,-2.1595535278320312
1700822867058869800,5.370869873046875,-1.9140567779541016,-0.6447586417198181,-2.099792957305908
1700822867068918000,5.38091796875,-0.9162807464599609,-0.9185630083084106,-1.4918537139892578
1700822867078908400,5.390908447265625,1.5668659210205078,-1.2528080940246582,-1.2604618072509766
1700822867088897800,5.400897705078125,3.438904285430908,-0.8766717910766602,-0.8827533721923828
1700822867098901800,5.41090185546875,4.803133487701416,-0.19117581844329834,-0.6980323791503906
1700822867108916000,5.420916015625,5.273966312408447,-0.47693419456481934,-0.481842041015625
1700822867118792400,5.43079248046875,4.6371049880981445,-1.2229048013687134,-0.2289562225341797
1700822867128765700,5.440765625,2.1278741359710693,-1.2260522842407227,-0.3690958023071289
1700822867138793000,5.45079296875,1.146399974822998,-0.8070728182792664,-0.8208389282226562
1700822867148862000,5.460862060546875,0.0646136999130249,-0.5767541527748108,-0.9569215774536133
1700822867158928000,5.470927978515625,-0.5760364532470703,-0.5180699229240417,-0.8726511001586914
1700822867168892400,5.480892333984375,-0.609168291091919,-0.5981950163841248,-0.6332159042358398
1700822867178912300,5.490912353515625,0.43985164165496826,-1.0287256240844727,-0.012415885925292969
1700822867188876500,5.50087646484375,1.0561187267303467,-0.3508736491203308,-0.16815757751464844
1700822867198909700,5.51090966796875,1.6636914014816284,-0.3180120587348938,-0.2809715270996094
1700822867208976000,5.520975830078125,1.639944076538086,-1.042407512664795,-0.5516700744628906
1700822867218912000,5.530912109375,1.3050369024276733,-2.1381571292877197,-1.3234338760375977
1700822867228942600,5.540942626953125,0.8060889840126038,-2.965243339538574,-2.045407295227051
1700822867238884400,5.55088427734375,0.7843050956726074,-3.0659401416778564,-2.6606335639953613
1700822867248929500,5.560929443359375,1.0117647647857666,-3.241591453552246,-3.3842625617980957
1700822867258946300,5.5709462890625,1.150529146194458,-4.152738094329834,-4.7752909660339355
1700822867268849200,5.58084912109375,0.634892463684082,-4.26115083694458,-5.571518898010254
1700822867278756000,5.590756103515625,0.09628653526306152,-3.835784912109375,-5.472506999969482
1700822867290900000,5.60289990234375,-0.07060670852661133,-3.4764018058776855,-4.46737813949585
1700822867308802000,5.620802001953125,0.586704432964325,-2.3726210594177246,-2.564415454864502
1700822867319960000,5.6319599609375,1.230600357055664,-0.7037912607192993,0.38487911224365234
1700822867329105000,5.64110498046875,1.3922640085220337,1.5767858028411865,3.561802864074707
1700822867338653000,5.65065283203125,0.8451929688453674,2.9505388736724854,6.706871032714844
1700822867348643000,5.66064306640625,0.0033475160598754883,2.899549961090088,8.794321060180664
1700822867358665000,5.6706650390625,-0.8959710597991943,1.804067850112915,8.661735534667969
1700822867368690000,5.68068994140625,-1.929552435874939,0.7225289344787598,7.1326904296875
1700822867379422000,5.691421875,-2.5219602584838867,0.12575268745422363,4.883441925048828
1700822867388603000,5.700602783203125,-2.642484188079834,0.4431464672088623,2.7160120010375977
1700822867398605000,5.71060498046875,-1.6459218263626099,0.900930643081665,1.0558576583862305
1700822867408882000,5.7208818359375,0.18084752559661865,1.6947976350784302,0.23888206481933594
1700822867418659000,5.7306591796875,1.3986510038375854,2.5170400142669678,-0.0031490325927734375
1700822867428714000,5.7407138671875,1.636642575263977,2.54067325592041,0.1853170394897461
1700822867438744000,5.750744140625,1.694796085357666,1.7255195379257202,0.31879234313964844
1700822867448722000,5.760721923828125,1.3991233110427856,1.0365843772888184,0.5094747543334961
1700822867458759000,5.770759033203125,0.6738005876541138,0.5498950481414795,0.7657203674316406
1700822867468777000,5.78077685546875,-0.14510929584503174,0.00241851806640625,0.9223108291625977
1700822867478754000,5.790754150390625,-0.7938321828842163,-0.18507766723632812,1.1379165649414062
1700822867488680000,5.800679931640625,-0.42803728580474854,-0.09296274185180664,1.1639299392700195
1700822867498766000,5.81076611328125,0.5840075612068176,0.12259578704833984,0.9716663360595703
1700822867508760000,5.820760009765625,-0.31850600242614746,2.183272361755371,1.2940349578857422
1700822867518788000,5.8307880859375,-1.4353199005126953,0.7527906894683838,0.3577537536621094
1700822867528804000,5.84080419921875,-1.1198201179504395,-0.3604736328125,-0.11706733703613281
1700822867538843000,5.8508427734375,0.4773796796798706,-0.16479802131652832,-0.7948474884033203
1700822867548855000,5.86085498046875,3.280439853668213,-0.8980059623718262,-2.0208559036254883
1700822867558837000,5.8708369140625,5.387017250061035,-0.14337372779846191,-3.2240610122680664
1700822867568668000,5.88066796875,2.079916477203369,1.3517626523971558,-3.1432766914367676
1700822867578948000,5.890947998046875,-2.9901819229125977,3.140500783920288,-0.9083480834960938
1700822867588962000,5.900962158203125,-3.3699755668640137,4.396445274353027,2.3298845291137695
1700822867598704000,5.9107041015625,-2.3127293586730957,4.250147819519043,5.285798072814941
1700822867608806000,5.920805908203125,-0.17434072494506836,2.5146617889404297,4.37116813659668
1700822867618814000,5.93081396484375,2.5436007976531982,0.44761204719543457,1.422347068786621
1700822867628807000,5.940806884765625,2.8599305152893066,-1.1228339672088623,-0.8699808120727539
1700822867639056000,5.951055908203125,2.0772488117218018,-0.9244799613952637,-1.7366218566894531
1700822867649353000,5.96135302734375,0.7244974374771118,-0.4008655548095703,-1.5713505744934082
1700822867658844000,5.970843994140625,0.1477869749069214,-0.6942789554595947,-0.797022819519043
1700822867668784000,5.9807841796875,0.6537181735038757,1.004052758216858,0.9704370498657227
1700822867679486000,5.99148583984375,0.002834320068359375,1.8279869556427002,1.4048900604248047
1700822867688834000,6.000833984375,-0.32682251930236816,1.8437848091125488,1.1517858505249023
1700822867698877000,6.010876953125,0.12652623653411865,1.2910823822021484,0.31137752532958984
1700822867708788000,6.0207880859375,0.509597897529602,0.6881836652755737,-0.4458599090576172
1700822867718921000,6.0309208984375,0.8033171892166138,0.010649919509887695,-1.0975227355957031
1700822867728923000,6.0409228515625,0.7172165513038635,-0.23028111457824707,-1.2374000549316406
1700822867739210000,6.0512099609375,0.6994652152061462,-0.2698633670806885,-0.7778463363647461
1700822867748770000,6.06077001953125,0.7906096577644348,-0.43864011764526367,0.023059844970703125
1700822867758939000,6.07093896484375,-0.061457276344299316,0.1332859992980957,1.3624277114868164
1700822867768916000,6.080916015625,-1.1172435283660889,0.36388587951660156,2.476825714111328
1700822867778873000,6.090873046875,1.2127199172973633,-0.30115318298339844,1.1342363357543945
1700822867788792000,6.1007919921875,2.2660155296325684,-1.3550937175750732,0.14705848693847656
1700822867798687000,6.11068701171875,1.3845465183258057,-0.9480454921722412,-0.09584903717041016
1700822867808793000,6.12079296875,0.2142009735107422,0.01607346534729004,-0.3006906509399414
1700822867819081000,6.1310810546875,-0.11177986860275269,1.4290629625320435,-0.15888309478759766
1700822867828864000,6.140864013671875,-0.17865848541259766,1.9387654066085815,0.30057334899902344
1700822867838808000,6.15080810546875,-0.16381871700286865,2.1892974376678467,1.0008506774902344
1700822867848815000,6.160815185546875,0.1045762300491333,1.9781886339187622,1.165811538696289
1700822867858802000,6.170802001953125,0.4629647135734558,1.2715935707092285,0.6599111557006836
1700822867868924000,6.180923828125,0.618161141872406,0.7024561166763306,0.06416893005371094
1700822867878969000,6.190968994140625,0.5067974328994751,0.3979238271713257,-0.5323877334594727
1700822867888931000,6.20093115234375,0.45905542373657227,-0.13511061668395996,-1.1093969345092773
1700822867899032000,6.211031982421875,0.33192896842956543,-0.5259413719177246,-1.1521949768066406
1700822867908902000,6.22090185546875,-0.011288881301879883,0.1474895477294922,-0.42947959899902344
1700822867918897000,6.23089697265625,-0.6514192819595337,0.7113218307495117,0.4952859878540039
1700822867928945000,6.24094482421875,-0.9447627067565918,1.3774528503417969,1.3624296188354492
1700822867938948000,6.250947998046875,-0.30840665102005005,1.475307822227478,1.5965452194213867
1700822867948776000,6.26077587890625,-0.1591571569442749,0.5316469669342041,0.8588457107543945
1700822867958609000,6.27060888671875,1.0012930631637573,2.2337138652801514,1.10205078125
1700822867968790000,6.2807900390625,1.7098159790039062,2.6282453536987305,0.6223249435424805
1700822867978885000,6.290885009765625,1.5443974733352661,2.199802875518799,0.48384761810302734
1700822867988870000,6.300869873046875,0.8207739591598511,2.4199023246765137,1.1399765014648438
1700822867998832000,6.31083203125,0.12463593482971191,1.5325413942337036,2.4094629287719727
1700822868008900000,6.320900146484375,-0.3633739948272705,1.1613105535507202,3.2507753372192383
1700822868018908000,6.330907958984375,-1.1003222465515137,1.2326600551605225,2.8870668411254883
1700822868028940000,6.34093994140625,-0.5365414619445801,0.854602038860321,0.23444366455078125
1700822868038900000,6.35089990234375,-0.7778127193450928,0.9370275139808655,-2.707937717437744
1700822868048859000,6.36085888671875,-1.3692151308059692,1.1413196325302124,-4.540041446685791
1700822868058868000,6.370867919921875,0.4878805875778198,0.08042025566101074,-5.301232814788818
1700822868068876000,6.3808759765625,1.6439380645751953,-0.38433748483657837,-4.5145368576049805
1700822868078988000,6.390988037109375,1.3255292177200317,-0.021594882011413574,-3.280022621154785
1700822868088719000,6.400718994140625,0.44386208057403564,-0.20916032791137695,-2.258647918701172
1700822868098828000,6.410828125,-1.2438528537750244,1.6789233684539795,-1.210886001586914
1700822868108755000,6.4207548828125,-2.7361574172973633,1.716559886932373,-0.5024337768554688
1700822868118859000,6.43085888671875,-1.1210527420043945,0.20039653778076172,-0.9636545181274414
1700822868128785000,6.440784912109375,-2.347740411758423,-1.3590196371078491,2.574875831604004
1700822868138601000,6.45060107421875,1.8591655492782593,-3.1963982582092285,5.236352920532227
1700822868148755000,6.4607548828125,8.86875057220459,-6.009202003479004,5.352062225341797
1700822868158776000,6.470776123046875,5.935556888580322,-1.631742238998413,2.398587226867676
1700822868168756000,6.480755859375,-0.3179295063018799,3.4230756759643555,0.18143844604492188
1700822868179159000,6.491158935546875,-1.3243494033813477,2.446665048599243,-0.040488243103027344
1700822868188750000,6.50075,-0.5947237014770508,0.43846070766448975,0.3180389404296875
1700822868198798000,6.510798095703125,-0.15111947059631348,-0.3749030828475952,0.6155242919921875
1700822868208795000,6.520794921875,-0.061400651931762695,-0.3937520980834961,0.3547325134277344
1700822868218807000,6.53080712890625,0.8410305976867676,-0.6909332275390625,0.3309335708618164
1700822868228833000,6.5408330078125,1.7514690160751343,-1.1434853076934814,0.6100244522094727
1700822868238924000,6.550924072265625,1.4886475801467896,-0.27414608001708984,0.23476314544677734
1700822868248818000,6.56081787109375,0.7749061584472656,0.6932762861251831,-0.3071861267089844
1700822868258807000,6.57080712890625,0.8814501762390137,0.6877949237823486,-0.3256359100341797
1700822868268989000,6.580989013671875,-0.29854297637939453,1.415347933769226,1.3027429580688477
1700822868278787000,6.590787109375,0.8955197334289551,0.6568670272827148,1.6839923858642578
1700822868288890000,6.60089013671875,1.3551164865493774,-0.9621595144271851,1.703155517578125
1700822868299068000,6.61106787109375,0.5426366329193115,-1.2308928966522217,1.7704401016235352
1700822868309018000,6.62101806640625,0.21337270736694336,-0.8310350179672241,0.7925319671630859
1700822868318815000,6.63081494140625,0.3215658664703369,-0.6463453769683838,0.08862686157226562
1700822868328805000,6.64080517578125,0.3584415912628174,-0.39313244819641113,-0.1220865249633789
1700822868338914000,6.6509140625,0.14109015464782715,0.7146931886672974,0.5125503540039062
1700822868348985000,6.660985107421875,1.379361629486084,1.616674542427063,0.6783590316772461
1700822868358775000,6.670775146484375,0.05829191207885742,2.9164655208587646,0.7001361846923828
1700822868368731000,6.68073095703125,-2.2169442176818848,3.7936770915985107,1.0207481384277344
1700822868378713000,6.690713134765625,-0.48938703536987305,3.4118502140045166,1.988790512084961
1700822868389547000,6.701547119140625,2.321099042892456,2.431047201156616,1.7134389877319336
1700822868398921000,6.7109208984375,2.9488003253936768,1.2295528650283813,1.4936609268188477
1700822868408819000,6.72081884765625,2.8044283390045166,-0.5277820825576782,0.7767057418823242
1700822868418628000,6.730628173828125,0.8556231260299683,-2.264481544494629,-0.3898191452026367
1700822868428776000,6.74077587890625,-1.2105865478515625,-2.440013885498047,-1.6319141387939453
1700822868438745000,6.7507451171875,-4.347251892089844,-2.0106256008148193,-4.5793023109436035
1700822868448717000,6.760717041015625,-4.602268218994141,-0.8973047733306885,-4.847209453582764
1700822868458810000,6.77081005859375,-1.9581680297851562,-0.31164979934692383,-4.683164596557617
1700822868468738000,6.780738037109375,0.22925186157226562,0.6745806932449341,-2.6497340202331543
1700822868478852000,6.79085205078125,1.8854033946990967,0.598408043384552,0.2518033981323242
1700822868488739000,6.800739013671875,3.2994909286499023,0.029182791709899902,3.159804344177246
1700822868498739000,6.810739013671875,2.9886324405670166,0.7022700905799866,5.553744316101074
1700822868508941000,6.820941162109375,2.924942970275879,-0.04341709613800049,6.024044036865234
1700822868518963000,6.830962890625,2.495734930038452,-0.9971575736999512,4.389187812805176
1700822868528888000,6.84088818359375,0.2563362121582031,-1.1258450746536255,0.8987007141113281
1700822868538888000,6.850887939453125,-1.9003963470458984,-2.2757315635681152,-1.4451227188110352
1700822868548726000,6.86072607421875,-3.1609201431274414,-2.3910434246063232,-2.127462387084961
1700822868558953000,6.870952880859375,-2.9216480255126953,-3.0186209678649902,-2.4104318618774414
1700822868568664000,6.8806640625,-1.4551548957824707,-3.902595043182373,-2.4795708656311035
1700822868578904000,6.890904052734375,-0.22474908828735352,-3.7338976860046387,-2.0998268127441406
1700822868588768000,6.90076806640625,0.7126666307449341,-2.671677589416504,-0.41898632049560547
1700822868598816000,6.91081591796875,1.9565906524658203,-1.1285988092422485,1.4004344940185547
1700822868608861000,6.92086083984375,2.760667085647583,1.9521691799163818,2.899168014526367
1700822868618843000,6.9308427734375,2.0263514518737793,3.769077777862549,3.2485532760620117
1700822868629029000,6.941029052734375,1.9136217832565308,3.1260714530944824,2.515021324157715
1700822868638876000,6.9508759765625,1.554276466369629,1.794508457183838,1.5809621810913086
1700822868649067000,6.96106689453125,0.535840630531311,1.1979084014892578,0.6662158966064453
1700822868659163000,6.971162841796875,0.16206681728363037,0.9836342930793762,-0.38970947265625
1700822868668986000,6.980986083984375,-0.4396475553512573,0.5297049283981323,-1.042684555053711
1700822868678675000,6.990675048828125,-1.3452988862991333,0.6496695280075073,-0.9068918228149414
1700822868688765000,7.000764892578125,-1.2682756185531616,-1.3103340864181519,-1.3832511901855469
1700822868698797000,7.010797119140625,0.27436816692352295,-1.1913069486618042,-1.3693675994873047
1700822868709030000,7.02102978515625,0.4633219242095947,3.920517921447754,-0.13331127166748047
1700822868718938000,7.030938232421875,0.0992734432220459,7.010719299316406,0.4830350875854492
1700822868728797000,7.040796875,-0.5056775808334351,1.894288182258606,-1.0018596649169922
1700822868739226000,7.05122607421875,0.0987696647644043,-2.486311435699463,0.5571756362915039
1700822868748661000,7.060660888671875,1.4321032762527466,-0.9478881359100342,1.575448989868164
1700822868759189000,7.07118896484375,1.8748416900634766,1.178102731704712,2.119553565979004
1700822868768885000,7.080885009765625,1.4267771244049072,2.948896884918213,1.787374496459961
1700822868778799000,7.090799072265625,0.05701112747192383,4.642826080322266,0.6900033950805664
1700822868788790000,7.1007900390625,-1.0089607238769531,2.8626294136047363,-1.7655696868896484
1700822868798936000,7.11093603515625,-0.5527939796447754,1.9107836484909058,-2.2275338172912598
1700822868808963000,7.120963134765625,-0.43561601638793945,-1.1141297817230225,-2.4500327110290527
1700822868818883000,7.130883056640625,1.478424072265625,-0.8913465142250061,-0.1815032958984375
1700822868828791000,7.140791015625,1.847571611404419,0.4348840117454529,2.3909692764282227
1700822868838938000,7.150938232421875,1.6892361640930176,0.9038628935813904,1.9537944793701172
1700822868848890000,7.16089013671875,0.5187122821807861,1.9990208148956299,1.4458198547363281
1700822868858851000,7.17085107421875,-0.6152927875518799,3.552172899246216,1.270456314086914
1700822868868969000,7.180968994140625,-1.2157487869262695,1.9282054901123047,-0.0931844711303711
1700822868879042000,7.1910419921875,-0.0029747486114501953,0.22597822546958923,-0.7383031845092773
1700822868888983000,7.200983154296875,0.2916991710662842,-1.9832566976547241,-1.3692293167114258
1700822868898931000,7.210930908203125,0.2743237018585205,-2.8513708114624023,-0.9670047760009766
1700822868908830000,7.220829833984375,0.8274340629577637,-0.3677352964878082,1.085606575012207
1700822868919000000,7.231,0.5545055866241455,-0.06302839517593384,0.9991226196289062
1700822868929049000,7.241049072265625,-0.0210726261138916,-0.5591650605201721,0.13455963134765625
1700822868940344000,7.252343994140625,-0.08614277839660645,0.41532236337661743,-0.17299270629882812
1700822868948740000,7.260739990234375,0.12147998809814453,1.3694430589675903,-0.22626781463623047
1700822868958788000,7.2707880859375,0.5707154273986816,1.5386848449707031,-0.08951663970947266
1700822868968746000,7.28074609375,0.6859538555145264,1.3001701831817627,0.18453407287597656
1700822868978755000,7.290755126953125,0.2409358024597168,1.2027844190597534,0.4050321578979492
1700822868988660000,7.300659912109375,-0.37546586990356445,1.3768469095230103,0.616450309753418
1700822868998801000,7.31080078125,-0.2140941619873047,1.4092398881912231,0.41825294494628906
1700822869008929000,7.320928955078125,0.3654780387878418,1.4637877941131592,0.14516544342041016
1700822869018811000,7.330810791015625,0.8373205661773682,1.9218841791152954,-0.06868648529052734
1700822869028648000,7.34064794921875,0.7322702407836914,2.6628940105438232,0.24023723602294922
1700822869038797000,7.350797119140625,0.719698429107666,2.525812864303589,0.6422014236450195
1700822869048650000,7.36064990234375,0.03797411918640137,1.9667752981185913,1.1277828216552734
1700822869058928000,7.37092822265625,-1.7366766929626465,1.798236608505249,0.976323127746582
1700822869069101000,7.38110107421875,-1.2683875560760498,1.9595787525177002,0.559025764465332
1700822869078723000,7.39072314453125,-2.324568271636963,1.928635597229004,0.7887229919433594
1700822869088808000,7.400807861328125,-1.0742595195770264,-0.13070112466812134,0.4772615432739258
1700822869098647000,7.41064697265625,0.5613009929656982,-3.0555269718170166,-0.2694587707519531
1700822869108655000,7.420655029296875,2.0665478706359863,-4.414419651031494,-0.8132143020629883
1700822869118679000,7.430678955078125,2.5083847045898438,-3.6480913162231445,-0.8336954116821289
1700822869128760000,7.440760009765625,2.2364277839660645,-1.0942898988723755,-0.8513469696044922
1700822869138756000,7.450756103515625,1.823002815246582,1.4984573125839233,-0.6512689590454102
1700822869148831000,7.4608310546875,1.0314910411834717,3.019775629043579,-0.1964273452758789
1700822869158645000,7.47064501953125,-0.5392351150512695,2.6069207191467285,0.5521316528320312
1700822869168734000,7.48073388671875,-1.2566022872924805,0.5867875814437866,1.2910680770874023
1700822869178847000,7.490846923828125,-0.7772526741027832,-1.0376230478286743,1.3606081008911133
1700822869188824000,7.500823974609375,0.011394023895263672,-0.7437965273857117,1.045196533203125
1700822869198786000,7.5107861328125,0.14147138595581055,0.21532881259918213,0.9525833129882812
1700822869208733000,7.52073291015625,0.779000997543335,0.9819245338439941,1.093705177307129
1700822869218752000,7.530751953125,0.30188632011413574,1.114031195640564,0.8720912933349609
1700822869228849000,7.540848876953125,0.3090825080871582,0.4489445686340332,0.9954166412353516
1700822869238761000,7.550760986328125,0.1564161777496338,-0.5703223943710327,0.9156417846679688
1700822869248918000,7.56091796875,0.23909282684326172,-1.6874974966049194,0.36956214904785156
1700822869258774000,7.57077392578125,0.5179178714752197,-2.6532506942749023,-0.2929573059082031
1700822869268776000,7.58077587890625,1.2267026901245117,-2.8281757831573486,-1.0594696998596191
1700822869278804000,7.590803955078125,1.787903904914856,-2.0248360633850098,-1.3508572578430176
1700822869288769000,7.60076904296875,1.887972354888916,-0.8883412480354309,-1.3651232719421387
1700822869298883000,7.610883056640625,1.1035072803497314,0.11001849174499512,-0.7198543548583984
1700822869308773000,7.620773193359375,0.16154766082763672,1.0410082340240479,0.06939411163330078
1700822869318800000,7.6307998046875,0.3090500831604004,1.7880373001098633,0.7556438446044922
1700822869328837000,7.640837158203125,0.33705878257751465,1.8914508819580078,1.166581153869629
1700822869338783000,7.650782958984375,0.35846734046936035,0.9798778295516968,1.244553565979004
1700822869348794000,7.660794189453125,0.3144352436065674,-0.6102697849273682,0.8055210113525391
1700822869358962000,7.6709619140625,0.4176042079925537,-1.9000173807144165,0.2680234909057617
1700822869368624000,7.6806240234375,0.13040566444396973,-2.1649117469787598,-1.8120226860046387
1700822869378813000,7.69081298828125,0.5157580375671387,-1.025561809539795,-2.491177558898926
1700822869388871000,7.700870849609375,0.13912105560302734,-0.4367290735244751,-1.6566276550292969
1700822869399014000,7.711013916015625,0.4569365978240967,-0.643079936504364,-0.32239437103271484
1700822869408826000,7.720826171875,0.9767513275146484,-0.049677371978759766,0.4944944381713867
1700822869418947000,7.730947021484375,1.012357473373413,0.5549285411834717,1.0451087951660156
1700822869428757000,7.740757080078125,0.592888593673706,0.7888089418411255,0.6256942749023438
1700822869438800000,7.7507998046875,0.34552907943725586,0.432989239692688,0.2679147720336914
1700822869448912000,7.760911865234375,0.4776923656463623,0.24064886569976807,0.07940959930419922
1700822869458676000,7.770676025390625,0.22877836227416992,0.5987575054168701,-0.2927970886230469
1700822869468853000,7.78085302734375,-0.25429391860961914,0.5791769027709961,0.05848979949951172
1700822869478724000,7.79072412109375,0.25261878967285156,0.0743708610534668,0.38117122650146484
1700822869488822000,7.800822021484375,0.10273218154907227,-0.26669085025787354,0.19157791137695312
1700822869498815000,7.81081494140625,-0.13596844673156738,-0.2010939121246338,-0.16726970672607422
1700822869508822000,7.820822021484375,-0.22946405410766602,0.027347445487976074,-0.06697654724121094
1700822869518748000,7.830747802734375,0.2561807632446289,0.17305326461791992,0.47264575958251953
1700822869528613000,7.840613037109375,0.52168869972229,-0.35900723934173584,0.4080314636230469
1700822869538610000,7.85060986328125,0.7150812149047852,-0.2996176481246948,-0.6058406829833984
1700822869548739000,7.860739013671875,0.8897597789764404,0.7588436603546143,-1.145944595336914
1700822869558973000,7.870972900390625,1.4369611740112305,0.6181473731994629,-0.2703971862792969
1700822869568751000,7.880751220703125,1.5338637828826904,0.13223278522491455,0.4587993621826172
1700822869578738000,7.890738037109375,0.310762882232666,0.27831804752349854,0.9845991134643555
1700822869589068000,7.901068115234375,-0.9586725234985352,0.3768850564956665,1.141988754272461
1700822869598773000,7.91077294921875,0.20850419998168945,0.25153613090515137,0.6503334045410156
1700822869608713000,7.920712890625,0.8165836334228516,0.06408405303955078,0.28699398040771484
1700822869618890000,7.930889892578125,-0.18042254447937012,0.7028855085372925,0.5735931396484375
1700822869628810000,7.94081005859375,-0.5288290977478027,0.9637112021446228,0.3273496627807617
1700822869638910000,7.950909912109375,-0.13569092750549316,1.174119472503662,0.03339672088623047
1700822869649009000,7.9610087890625,-0.5946605205535889,0.22411882877349854,-0.4439525604248047
1700822869658754000,7.970754150390625,-1.1291882991790771,-0.08115500211715698,-0.4516420364379883
1700822869668701000,7.980700927734375,-0.22577285766601562,-0.4563117027282715,-1.2149324417114258
1700822869678813000,7.99081298828125,1.0462210178375244,-0.25921499729156494,-1.2066597938537598
1700822869688813000,8.00081298828125,0.6933283805847168,-0.3422539532184601,-0.06578922271728516
1700822869698888000,8.010887939453125,-0.13750243186950684,0.506716251373291,0.7025890350341797
1700822869708763000,8.020762939453125,-1.4456992149353027,1.059104561805725,1.1301088333129883
1700822869718789000,8.0307890625,-1.703000783920288,1.245664119720459,0.9526739120483398
1700822869728903000,8.04090283203125,-1.1375854015350342,1.2910668849945068,-0.21760082244873047
1700822869738675000,8.050675048828126,-0.576613187789917,1.2521674633026123,-0.7187013626098633
1700822869748844000,8.060843994140624,0.9431757926940918,0.5059133172035217,-0.821446418762207
1700822869758801000,8.07080078125,1.192603588104248,0.08660130202770233,-0.012097358703613281
1700822869768775000,8.08077490234375,0.811931848526001,0.05198591947555542,0.912135124206543
1700822869779320000,8.091320068359375,0.48156023025512695,1.2589044570922852,1.1362476348876953
1700822869788884000,8.100884033203124,0.10398411750793457,2.13944411277771,0.31005096435546875
1700822869798739000,8.110739013671875,-0.96647047996521,1.4423624277114868,-0.10000038146972656
1700822869809210000,8.121210205078125,-1.7556931972503662,1.5455645322799683,-0.7762727737426758
1700822869818818000,8.130818115234375,-1.3470878601074219,1.6648873090744019,-1.0976171493530273
1700822869829003000,8.1410029296875,-1.2624008655548096,1.2067185640335083,-0.2083749771118164
1700822869838935000,8.15093505859375,-0.8826785087585449,0.9064707159996033,1.3147716522216797
1700822869848809000,8.16080908203125,-0.45813989639282227,1.356055736541748,2.3096389770507812
1700822869858869000,8.170868896484375,-0.9489331245422363,1.7944813966751099,2.5229969024658203
1700822869868855000,8.18085498046875,-1.1339678764343262,1.3160837888717651,1.6795721054077148
1700822869878875000,8.190875,-1.1296961307525635,1.1127619743347168,0.18448829650878906
1700822869888805000,8.20080517578125,-0.5416383743286133,0.3288499712944031,-0.2713327407836914
1700822869898940000,8.21093994140625,0.5673375129699707,-0.3517199754714966,-0.6828327178955078
1700822869909161000,8.221160888671875,1.6079009771347046,0.09826689958572388,-0.6676311492919922
1700822869918880000,8.2308798828125,2.721728563308716,0.5888830423355103,-0.13815593719482422
1700822869928827000,8.240826904296876,3.178015947341919,0.5481298565864563,0.12184524536132812
1700822869938706000,8.250705810546876,3.088104009628296,0.038964807987213135,-0.12620830535888672
1700822869948735000,8.26073486328125,2.7308197021484375,-1.6531790494918823,-0.48954105377197266
1700822869958677000,8.270677001953125,1.2876942157745361,-3.3946874141693115,-1.4803247451782227
1700822869968875000,8.280875,-0.4440610408782959,-4.294831275939941,-2.2176384925842285
1700822869978676000,8.290676025390624,-2.0824248790740967,-3.154219627380371,-1.9853010177612305
1700822869988752000,8.300751953125,-2.5863800048828125,-0.840244710445404,0.9098482131958008
1700822869998773000,8.31077294921875,-1.9633517265319824,-0.4055638313293457,1.899775505065918
1700822870008804000,8.32080419921875,-0.6935343742370605,0.1678682565689087,2.246356964111328
1700822870018812000,8.33081201171875,0.47402381896972656,0.8080717325210571,2.167387008666992
1700822870028670000,8.340669921875,1.5130739212036133,1.4453779458999634,1.3472776412963867
1700822870038802000,8.350802001953125,1.6862263679504395,1.2888480424880981,0.4011249542236328
1700822870049048000,8.361048095703126,1.1706593036651611,1.005240559577942,-0.6863670349121094
1700822870058880000,8.3708798828125,0.5460236072540283,0.2847159504890442,-1.349405288696289
1700822870068615000,8.380614990234376,-0.7489497661590576,-0.4316530227661133,-0.9307146072387695
1700822870078912000,8.390912109375,0.029015302658081055,-2.462819814682007,0.04048347473144531
1700822870088713000,8.400712890625,-0.6956958770751953,-3.0727200508117676,0.5393857955932617
1700822870098745000,8.4107451171875,-0.43157362937927246,-2.1898598670959473,0.18420982360839844
1700822870108760000,8.420760009765624,-0.3266787528991699,-0.9693336486816406,-0.5106039047241211
1700822870118756000,8.430756103515625,0.12739229202270508,-0.6408432722091675,-0.9477815628051758
1700822870128742000,8.440741943359376,1.053969383239746,-1.1083353757858276,-1.6834654808044434
1700822870138620000,8.450619873046875,1.97930109500885,-2.35325288772583,-2.399125576019287
1700822870148750000,8.46075,2.2053747177124023,-2.0509235858917236,-2.4238367080688477
1700822870159106000,8.47110595703125,2.816397190093994,-1.4342048168182373,-1.1494989395141602
1700822870168703000,8.480702880859376,2.912431240081787,-0.7373469471931458,0.005100250244140625
1700822870178974000,8.490973876953126,2.5177879333496094,-1.2525907754898071,1.1241655349731445
1700822870188892000,8.500891845703125,1.3692553043365479,-2.793124198913574,1.5073661804199219
1700822870198863000,8.510863037109376,0.5149941444396973,-3.731562852859497,1.2991628646850586
1700822870208691000,8.52069091796875,0.3276498317718506,-4.603195667266846,0.642669677734375
1700822870218775000,8.530775146484375,0.17833423614501953,-5.5304059982299805,-0.45182323455810547
1700822870228741000,8.5407412109375,-1.3389217853546143,-5.079226016998291,-1.0638093948364258
1700822870238793000,8.55079296875,-0.19712352752685547,-3.986379384994507,-0.026801109313964844
1700822870248626000,8.5606259765625,0.30635082721710205,-4.045780181884766,-2.6172232627868652
1700822870258675000,8.570675048828125,0.6601555943489075,-0.032868385314941406,-0.90155029296875
1700822870268612000,8.580612060546875,0.9998083710670471,3.6993231773376465,2.719644546508789
1700822870278843000,8.5908427734375,0.5728329420089722,5.067322254180908,6.379220008850098
1700822870288724000,8.600723876953126,2.4972970485687256,5.948495864868164,8.23855209350586
1700822870299022000,8.61102197265625,-0.40102702379226685,3.7328715324401855,7.275874137878418
1700822870308920000,8.620920166015624,0.7728934288024902,4.609222412109375,5.590841293334961
1700822870318842000,8.630842041015624,1.6102449893951416,3.9225220680236816,2.2342615127563477
1700822870328596000,8.640595947265625,0.30251550674438477,2.168525218963623,-1.085942268371582
1700822870338747000,8.650746826171876,-0.7613944411277771,1.524039626121521,-3.8801779747009277
1700822870348822000,8.660822021484375,-2.402401924133301,1.6744214296340942,-5.772444725036621
1700822870358836000,8.6708359375,-3.8705146312713623,2.2658004760742188,-6.858555793762207
1700822870368844000,8.680843994140625,-4.106603145599365,2.736055850982666,-6.357421875
1700822870378773000,8.69077294921875,-4.637237548828125,0.9650450944900513,-2.8086328506469727
1700822870388782000,8.700781982421875,-2.3949716091156006,0.7238558530807495,1.2602853775024414
1700822870398773000,8.71077294921875,0.5637006163597107,1.1203852891921997,2.4464168548583984
1700822870408942000,8.720942138671875,2.406129837036133,1.0659890174865723,1.9939079284667969
1700822870418708000,8.7307080078125,3.1858949661254883,0.4230705499649048,0.8343753814697266
1700822870428820000,8.740820068359374,1.926961064338684,0.16147828102111816,0.3012523651123047
1700822870438829000,8.7508291015625,-0.5842419266700745,0.33220332860946655,0.27030467987060547
1700822870449107000,8.76110693359375,-2.0116994380950928,0.6284610033035278,0.07423114776611328
1700822870458827000,8.770826904296875,-2.1726293563842773,0.8811889290809631,-0.12359428405761719
1700822870468717000,8.780717041015626,-0.8411579728126526,1.0758484601974487,-0.07996749877929688
1700822870478881000,8.790881103515625,0.32488781213760376,1.0096774101257324,-0.0619049072265625
1700822870489058000,8.80105810546875,0.4320879578590393,0.8018783926963806,-0.08838748931884766
1700822870498671000,8.810671142578125,-0.0714227557182312,0.7840890884399414,-0.10434627532958984
1700822870508771000,8.82077099609375,-0.6691285371780396,0.8254720568656921,-0.14775753021240234
1700822870518754000,8.830754150390625,-0.6760188341140747,0.781998872756958,-0.1860198974609375
1700822870528749000,8.8407490234375,-0.28889524936676025,0.6757756471633911,-0.042138099670410156
1700822870538595000,8.850594970703124,0.17262566089630127,0.550778865814209,0.11445140838623047
1700822870548602000,8.86060205078125,0.37314653396606445,0.439636766910553,0.2660789489746094
1700822870558717000,8.870717041015626,0.455580472946167,0.04376780986785889,0.3628578186035156
1700822870568754000,8.88075390625,0.5212607979774475,-0.0599021315574646,0.3775959014892578
1700822870578880000,8.8908798828125,0.6061538457870483,-0.06628161668777466,0.33321666717529297
1700822870588804000,8.90080419921875,0.567861795425415,-0.015980243682861328,0.33171749114990234
1700822870598941000,8.91094091796875,0.32594287395477295,-0.0485442578792572,0.048262596130371094
1700822870608779000,8.920779052734375,0.1517641544342041,-0.2565077543258667,-0.12046432495117188
1700822870618811000,8.930810791015626,0.05138242244720459,-0.3693872094154358,-0.3612241744995117
1700822870628888000,8.94088818359375,-0.03397011756896973,-0.38526248931884766,-0.5277462005615234
1700822870638696000,8.950696044921875,-0.05425834655761719,-0.3239268660545349,-0.5329685211181641
1700822870648874000,8.9608740234375,-0.016406893730163574,-0.27833354473114014,-0.41994285583496094
1700822870658870000,8.9708701171875,0.07630646228790283,-0.3117656111717224,-0.20811176300048828
1700822870668855000,8.98085498046875,0.16418981552124023,-0.38980305194854736,0.01802539825439453
1700822870678945000,8.990945068359375,0.26657116413116455,-0.45940035581588745,0.27797889709472656
1700822870688679000,9.000678955078126,0.3210282325744629,-0.498826265335083,0.5347433090209961
1700822870698978000,9.01097802734375,0.3711252212524414,-0.47707945108413696,0.6891002655029297
1700822870708963000,9.020963134765625,0.3765624761581421,-0.3635047674179077,0.6032924652099609
1700822870718979000,9.03097900390625,0.1600818634033203,-0.281330406665802,0.32566356658935547
1700822870728979000,9.04097900390625,-0.1643739938735962,-0.23891746997833252,0.043723106384277344
1700822870738724000,9.05072412109375,-0.41296470165252686,-0.25443416833877563,-0.15149211883544922
1700822870748987000,9.06098681640625,-0.3922951817512512,-0.2692086100578308,-0.166290283203125
1700822870758843000,9.0708427734375,-0.24540776014328003,-0.29569244384765625,-0.054126739501953125
1700822870768818000,9.08081787109375,-0.19571667909622192,-0.382887601852417,0.04454517364501953
1700822870778826000,9.090825927734375,-0.029088497161865234,-0.4856833219528198,0.11445426940917969
1700822870788644000,9.10064404296875,-0.2067599892616272,-0.03653359413146973,-0.23609352111816406
1700822870798714000,9.110714111328125,-0.9558645486831665,0.6156500577926636,-0.28027915954589844
1700822870808701000,9.120700927734376,-0.5609592199325562,1.165698528289795,0.15150928497314453
1700822870818917000,9.130917236328125,0.3999900817871094,0.18909716606140137,-0.20796775817871094
1700822870828780000,9.140780029296875,0.4663205146789551,-1.0168026685714722,-0.23468494415283203
1700822870838806000,9.150805908203125,0.16335809230804443,-0.4902998208999634,-0.11164569854736328
1700822870848791000,9.160791015625,0.7282943725585938,0.40356242656707764,1.0065984725952148
1700822870858824000,9.170823974609375,1.1886857748031616,0.8081871867179871,0.9575262069702148
1700822870868846000,9.18084619140625,-0.6413114070892334,0.8391527533531189,0.35479164123535156
1700822870878835000,9.1908349609375,-2.0045952796936035,0.5631026029586792,-0.023729324340820312
1700822870888840000,9.20083984375,-1.8721809387207031,0.6885720491409302,0.09121990203857422
1700822870898759000,9.210759033203125,-0.819952130317688,1.2257169485092163,0.05626201629638672
1700822870908832000,9.22083203125,0.474489688873291,1.3323255777359009,-0.6845712661743164
1700822870918817000,9.230817138671876,0.6803209781646729,0.9426560997962952,-1.2582464218139648
1700822870934027000,9.246027099609375,-0.0059299468994140625,0.31720811128616333,-0.8007640838623047
1700822870948847000,9.26084716796875,-1.0131072998046875,-0.2728983163833618,-0.3908557891845703
1700822870958768000,9.27076806640625,-1.082157015800476,-0.1903235912322998,-0.2948570251464844
1700822870968835000,9.2808349609375,-0.5512397885322571,-0.021894216537475586,-0.021180152893066406
1700822870978857000,9.29085693359375,-0.20290827751159668,0.741144061088562,0.6291484832763672
1700822870988829000,9.300828857421875,-0.1507575511932373,1.4511144161224365,1.3464345932006836
1700822870998787000,9.310787109375,0.1875818967819214,1.6423519849777222,1.456437110900879
1700822871008857000,9.320857177734375,1.2066231966018677,1.2032958269119263,1.0829401016235352
1700822871018820000,9.330820068359374,1.4202497005462646,0.19141018390655518,0.3816490173339844
1700822871029294000,9.341294189453125,0.9475841522216797,-0.9488457441329956,-0.5933094024658203
1700822871038951000,9.350950927734376,-0.004208564758300781,-1.5702052116394043,-0.886317253112793
1700822871048793000,9.36079296875,-0.06896424293518066,-1.2910168170928955,-1.0288715362548828
1700822871058863000,9.370863037109375,-0.21917057037353516,-0.8331760168075562,-0.921351432800293
1700822871068769000,9.38076904296875,0.39987897872924805,-0.07914543151855469,-0.20972251892089844
1700822871078785000,9.390784912109375,1.024389386177063,0.15088236331939697,0.7717189788818359
1700822871088901000,9.400901123046875,1.3244354724884033,0.7162673473358154,1.576324462890625
1700822871098809000,9.41080908203125,1.2918338775634766,1.071872591972351,1.5257558822631836
1700822871108766000,9.420765869140626,2.29587984085083,1.7086793184280396,0.955622673034668
1700822871118900000,9.43089990234375,1.4261704683303833,1.7096500396728516,0.32919979095458984
1700822871128893000,9.440892822265624,0.3168456554412842,1.1944026947021484,-0.057453155517578125
1700822871138671000,9.450671142578125,-0.3102174401283264,0.6066969037055969,-0.07701396942138672
1700822871148698000,9.460697998046875,-0.21271979808807373,0.3450533151626587,0.3593177795410156
1700822871158771000,9.47077099609375,0.3596782684326172,0.17748534679412842,0.5066862106323242
1700822871168645000,9.48064501953125,0.19147419929504395,0.3263481855392456,0.4447469711303711
1700822871178798000,9.490798095703125,0.4020625352859497,0.6149318814277649,0.048790931701660156
1700822871189155000,9.501155029296875,0.39317595958709717,0.9941539764404297,-0.06604862213134766
1700822871198787000,9.510787109375,1.3604930639266968,1.4689126014709473,-0.07975482940673828
1700822871208924000,9.520923828125,0.19055306911468506,0.9403715133666992,0.29014015197753906
1700822871218853000,9.53085302734375,0.62245774269104,1.010566234588623,0.8477878570556641
1700822871228849000,9.540848876953126,-0.23930299282073975,0.4887874722480774,0.6734218597412109
1700822871238865000,9.550864990234375,1.185372233390808,-0.45085084438323975,-0.2870321273803711
1700822871248853000,9.56085302734375,0.49192774295806885,-1.0645027160644531,-0.49567604064941406
1700822871258831000,9.5708310546875,-0.2258521318435669,-0.6739646196365356,-0.7572507858276367
1700822871268776000,9.58077587890625,0.49869346618652344,-0.23021602630615234,-2.2596898078918457
1700822871278823000,9.590822998046875,0.017449617385864258,-0.41684234142303467,-1.588423252105713
1700822871288812000,9.60081201171875,-0.596261739730835,0.38702917098999023,-0.2504453659057617
1700822871298651000,9.61065087890625,0.6255292892456055,1.18687105178833,0.7207479476928711
1700822871308831000,9.6208310546875,1.1657330989837646,1.5024349689483643,1.4239835739135742
1700822871318986000,9.630986083984375,0.5667967796325684,1.6924467086791992,2.022787094116211
1700822871328864000,9.640864013671875,0.28493642807006836,1.6439790725708008,1.7824459075927734
1700822871338686000,9.65068603515625,0.43447232246398926,1.2889199256896973,0.25490570068359375
1700822871348822000,9.660822021484375,-0.12486791610717773,0.4391719698905945,-1.4078559875488281
1700822871358834000,9.670833984375,-0.5315365791320801,-0.724606990814209,-2.26699161529541
1700822871368905000,9.680905029296875,-0.09438276290893555,-1.2692950963974,-2.2684202194213867
1700822871378916000,9.690916015625,-0.18835926055908203,0.011991441249847412,-1.6105718612670898
1700822871388662000,9.700662109375,0.25497400760650635,0.6681629419326782,-0.058966636657714844
1700822871398904000,9.710904052734374,0.43789494037628174,0.7932882308959961,1.057845115661621
1700822871408849000,9.720848876953125,0.5239243507385254,-0.0010243654251098633,0.9133119583129883
1700822871418912000,9.730912109375,0.16652560234069824,-1.0449843406677246,0.3369407653808594
1700822871428876000,9.7408759765625,0.05475807189941406,-1.6760904788970947,-0.5804910659790039
1700822871438868000,9.750867919921875,0.032686471939086914,-1.68223237991333,-0.9602937698364258
1700822871449329000,9.761328857421875,0.6852419376373291,-0.688528835773468,-0.8165302276611328
1700822871458740000,9.770739990234375,1.0817248821258545,1.6469056606292725,0.4647541046142578
1700822871468712000,9.7807119140625,1.3939745426177979,3.5011138916015625,1.6234121322631836
1700822871478757000,9.790757080078125,0.25150179862976074,3.2569572925567627,1.1580524444580078
1700822871488884000,9.800884033203126,-0.9155257940292358,1.8889342546463013,-0.43130016326904297
1700822871498830000,9.810830078125,-1.0011626482009888,1.690910816192627,-1.8878045082092285
1700822871508820000,9.820820068359374,-0.11220169067382812,2.0662548542022705,-2.136445999145508
1700822871518815000,9.83081494140625,2.120422601699829,1.6561098098754883,-0.800537109375
1700822871528751000,9.840751220703124,2.2130088806152344,2.5781049728393555,-0.5493478775024414
1700822871538869000,9.850868896484375,0.8870055675506592,2.4999618530273438,-0.8733072280883789
1700822871548740000,9.860739990234375,-0.7286752462387085,2.032205104827881,-0.7382678985595703
1700822871558903000,9.870903076171874,-1.494109869003296,1.9862725734710693,-0.07099151611328125
1700822871568634000,9.880634033203124,-1.404975175857544,2.217543363571167,0.5047283172607422
1700822871578652000,9.89065185546875,-1.5357449054718018,2.6966092586517334,1.281682014465332
1700822871588618000,9.900617919921874,-1.9222890138626099,3.046767234802246,0.07364845275878906
1700822871598755000,9.910755126953125,-1.1992384195327759,2.934605836868286,-0.15041160583496094
1700822871608636000,9.920635986328126,-1.0405144691467285,3.054084539413452,0.013508796691894531
1700822871618820000,9.930820068359376,-0.3661612272262573,2.3079609870910645,0.13582134246826172
1700822871628828000,9.940827880859375,-0.7296350002288818,0.9727134108543396,0.007496833801269531
1700822871639068000,9.95106787109375,-1.2861462831497192,1.3446035385131836,-0.3213024139404297
1700822871649039000,9.9610390625,-1.5438740253448486,1.1082242727279663,-1.0032987594604492
1700822871658734000,9.970734130859375,-1.9338170289993286,1.52106511592865,-1.2273836135864258
1700822871668722000,9.980721923828124,-1.7809330224990845,1.7405270338058472,-1.3091907501220703
1700822871678612000,9.990612060546875,-0.8113316297531128,1.7334320545196533,-0.5349149703979492
1700822871688918000,10.00091796875,0.16491758823394775,2.050189733505249,-0.6744270324707031
1700822871698730000,10.01072998046875,0.10918056964874268,3.1122989654541016,-0.0921640396118164
1700822871708737000,10.020737060546875,-0.4943780303001404,2.9589295387268066,0.8302268981933594
1700822871718763000,10.030762939453124,-1.6173255443572998,1.2746862173080444,0.4520273208618164
1700822871728775000,10.04077490234375,-3.0761733055114746,1.33050537109375,0.030846595764160156
1700822871738713000,10.050713134765624,-3.7393593788146973,0.9928525686264038,-0.5354528427124023
1700822871749155000,10.061155029296875,-4.095312118530273,0.1254085898399353,-0.30341148376464844
1700822871758794000,10.0707939453125,-5.179699897766113,-0.7085506916046143,-0.20682716369628906
1700822871768928000,10.080927978515625,-6.547229290008545,-0.30179744958877563,0.0007677078247070312
1700822871778972000,10.090971923828125,-7.296993732452393,-0.6730865836143494,0.8190956115722656
1700822871789513000,10.101512939453125,-4.065046310424805,-3.3669369220733643,2.1750621795654297
1700822871799365000,10.111365234375,-1.589796781539917,-5.020226001739502,3.9512901306152344
1700822871808897000,10.12089697265625,-0.4633623957633972,-6.835829734802246,6.822019577026367
1700822871818835000,10.1308349609375,2.1722021102905273,-7.11630916595459,5.912835121154785
1700822871828950000,10.140949951171875,1.1166296005249023,-9.977020263671875,1.2817745208740234
1700822871839327000,10.151326904296875,-2.5052175521850586,-6.805546283721924,-2.3446297645568848
1700822871848773000,10.160773193359375,-1.3131186962127686,-3.9425532817840576,-2.805243968963623
1700822871858846000,10.170845947265626,1.1072032451629639,-1.3830424547195435,-1.065962791442871
1700822871868813000,10.18081298828125,3.167189836502075,0.22738367319107056,1.4234085083007812
1700822871878875000,10.190875,1.4066163301467896,3.5496020317077637,3.257204055786133
1700822871888930000,10.200929931640625,-0.5956377387046814,8.285959243774414,4.946808815002441
1700822871898678000,10.210677978515625,0.8590694069862366,7.419277191162109,5.4493408203125
1700822871908863000,10.220863037109375,-1.2607539892196655,5.263388156890869,4.888216972351074
1700822871919023000,10.231023193359375,-1.3574416637420654,0.8452529907226562,1.916550636291504
1700822871928883000,10.240883056640625,-2.9693715572357178,-3.223942518234253,-0.9573402404785156
1700822871939037000,10.251036865234376,-5.150745391845703,-4.876267910003662,-1.861966609954834
1700822871953821000,10.265821044921875,-6.180355072021484,-5.135757923126221,-2.2085766792297363
1700822871968885000,10.280885009765624,-2.016770124435425,-3.5454792976379395,-3.0474696159362793
1700822871978707000,10.29070703125,-1.3462083339691162,0.49485084414482117,0.2516517639160156
1700822871988836000,10.300836181640625,-1.6229052543640137,2.268038749694824,2.5262889862060547
1700822871998814000,10.31081396484375,-0.5708599090576172,2.137929916381836,3.1917810440063477
1700822872008818000,10.32081787109375,-2.136540174484253,2.093857765197754,3.328388214111328
1700822872018821000,10.330821044921874,-0.6915397644042969,0.28966620564460754,1.702702522277832
1700822872028942000,10.340942138671876,-1.8754559755325317,-1.8201384544372559,-1.3191108703613281
1700822872038842000,10.350842041015625,-4.984349250793457,-3.1119179725646973,-4.200212478637695
1700822872048642000,10.36064208984375,-6.693100452423096,-2.971891403198242,-5.0249834060668945
1700822872058646000,10.37064599609375,-6.476955413818359,-2.760612726211548,-3.174403190612793
1700822872068883000,10.380883056640625,-2.253127336502075,-2.563504934310913,0.028072357177734375
1700822872079270000,10.391269775390626,0.401796817779541,-1.9447436332702637,3.931220054626465
1700822872088893000,10.400892822265625,-0.49088573455810547,-1.4262874126434326,5.051020622253418
1700822872098752000,10.410751953125,-0.09578728675842285,0.15704399347305298,2.582265853881836
1700822872108731000,10.42073095703125,0.31978559494018555,1.7281209230422974,-1.1263189315795898
1700822872118666000,10.430666015625,-1.0080091953277588,3.319645881652832,-5.46049165725708
1700822872128823000,10.440822998046874,-8.627823829650879,1.204094409942627,-2.0423665046691895
1700822872139324000,10.451323974609375,-11.178735733032227,-4.358169078826904,1.5081796646118164
1700822872148761000,10.460760986328125,-6.867173671722412,-6.066949844360352,2.7621374130249023
1700822872158768000,10.47076806640625,3.2111220359802246,-4.636950969696045,3.599752426147461
1700822872168982000,10.48098193359375,1.5500991344451904,-3.9327499866485596,3.2068042755126953
1700822872178884000,10.490884033203125,-2.1270503997802734,-2.445605754852295,0.49320316314697266
1700822872188719000,10.500718994140625,-3.185469627380371,0.006282210350036621,-0.9694690704345703
1700822872198724000,10.51072412109375,-4.114072322845459,1.4719399213790894,-3.465491771697998
1700822872208781000,10.520781005859375,-3.6582071781158447,0.9448062181472778,-5.090031623840332
1700822872218991000,10.5309912109375,-5.862157821655273,1.8927459716796875,-5.035464286804199
1700822872228797000,10.540796875,-5.483860015869141,2.1822428703308105,-2.3578314781188965
1700822872239226000,10.55122607421875,-3.759805917739868,2.795621395111084,0.4769430160522461
1700822872248774000,10.56077392578125,-0.8655350208282471,3.2046310901641846,2.0663366317749023
1700822872258819000,10.570819091796874,2.684044599533081,3.281545639038086,2.762065887451172
1700822872268899000,10.580899169921874,5.6108479499816895,3.280214309692383,3.1799354553222656
1700822872278808000,10.59080810546875,5.042949676513672,2.2613561153411865,4.616137504577637
1700822872288810000,10.60081005859375,1.2882895469665527,0.7383000254631042,7.452509880065918
1700822872298753000,10.6107529296875,-2.203169345855713,-0.4738888740539551,9.9833345413208
1700822872308916000,10.620916015625,-6.821072578430176,-2.7001147270202637,9.236005783081055
1700822872318779000,10.63077880859375,-9.479294776916504,-3.7538235187530518,5.7424116134643555
1700822872328879000,10.640879150390624,-12.738815307617188,-3.6640636920928955,2.2812557220458984
1700822872338797000,10.650797119140625,-13.26439094543457,-4.364592552185059,-1.1364116668701172
1700822872348923000,10.6609228515625,-11.188438415527344,-4.455569267272949,-3.9966955184936523
1700822872358793000,10.67079296875,-9.765892028808594,-5.079977989196777,-5.927338600158691
1700822872368801000,10.680801025390625,-7.5551862716674805,-6.317685127258301,-6.6332879066467285
1700822872379037000,10.691036865234375,-5.395583629608154,-7.381858825683594,-5.200044631958008
1700822872388883000,10.700883056640626,-2.671640634536743,-7.978705406188965,-1.3009004592895508
1700822872398906000,10.710906005859375,0.9593210220336914,-8.586209297180176,2.5099620819091797
1700822872408856000,10.72085595703125,6.683239936828613,-9.480154037475586,2.5906753540039062
1700822872418860000,10.730860107421876,10.410600662231445,-9.098440170288086,1.4387741088867188
1700822872428787000,10.740786865234375,10.005964279174805,-8.314810752868652,-0.6037969589233398
1700822872439029000,10.751029052734374,4.952935218811035,-6.010566234588623,-1.2061939239501953
1700822872448982000,10.76098193359375,-0.4381122589111328,-4.107205867767334,-1.9869346618652344
1700822872458854000,10.77085400390625,-0.8582541942596436,-3.513462543487549,-2.4938302040100098
1700822872468632000,10.780632080078124,-0.39960551261901855,-3.2232308387756348,-1.9126343727111816
1700822872478780000,10.79077978515625,-0.7211945056915283,-2.8762664794921875,-0.9723396301269531
1700822872488753000,10.8007529296875,-1.421525001525879,-3.4065234661102295,-0.2260761260986328
1700822872498882000,10.810882080078125,-1.940110206604004,-4.104699611663818,-0.18309974670410156
1700822872508700000,10.820699951171875,-1.45991051197052,-4.250677585601807,-0.49721622467041016
1700822872518654000,10.830654052734374,-0.4558718204498291,-2.88602614402771,0.11996746063232422
1700822872528868000,10.8408681640625,0.7598178386688232,-0.3795747756958008,1.7175226211547852
1700822872538769000,10.850768798828126,1.7841770648956299,0.9683237075805664,2.513209342956543
1700822872548960000,10.8609599609375,1.6940956115722656,1.8859742879867554,2.658214569091797
1700822872558880000,10.8708798828125,-0.5327887535095215,2.7688212394714355,1.5998868942260742
1700822872568627000,10.880626953125,-3.074065923690796,3.5966644287109375,0.5278158187866211
1700822872581018000,10.89301806640625,-3.306595802307129,3.5939793586730957,-0.17417621612548828
1700822872598675000,10.910675048828125,-2.632330894470215,3.2784554958343506,1.2503042221069336
1700822872608764000,10.920763916015625,-1.9849599599838257,1.4964359998703003,1.3957719802856445
1700822872618663000,10.930662841796876,-1.2204598188400269,-0.3564665913581848,0.6639204025268555
1700822872628770000,10.94077001953125,-0.024956703186035156,-1.267670750617981,0.4150400161743164
1700822872638761000,10.950760986328126,0.6486124992370605,-1.8935145139694214,0.4255857467651367
1700822872648893000,10.960892822265626,0.5741448402404785,-1.852363109588623,0.7023143768310547
1700822872658844000,10.970843994140624,0.13343548774719238,-1.6178420782089233,0.9995403289794922
1700822872668711000,10.9807109375,-0.08050251007080078,-0.9905761480331421,1.2075653076171875
1700822872678739000,10.990739013671876,-0.2142045497894287,0.21859422326087952,1.3995437622070312
1700822872688828000,11.000827880859376,-0.8865636587142944,0.49177372455596924,1.0943145751953125
1700822872698840000,11.010840087890625,-1.1035598516464233,-0.2718801498413086,0.4918661117553711
1700822872708734000,11.02073388671875,-0.9007114171981812,-1.1509602069854736,-0.15212440490722656
1700822872718738000,11.030738037109375,-0.6626948118209839,-2.083710193634033,-0.8341026306152344
1700822872728741000,11.0407412109375,-0.5212535858154297,-2.7650465965270996,-0.7344427108764648
1700822872738752000,11.050751953125,-0.44407057762145996,-2.7804617881774902,-0.15866470336914062
1700822872748722000,11.060721923828124,0.08931350708007812,-1.9891345500946045,-0.2034759521484375
1700822872758861000,11.070861083984376,0.004854440689086914,-0.3761708438396454,0.17083740234375
1700822872768847000,11.08084716796875,-0.16752076148986816,-0.5515016913414001,0.2282705307006836
1700822872778878000,11.0908779296875,-2.7294065952301025,-0.32069212198257446,-0.0011148452758789062
1700822872788858000,11.100858154296875,-3.5321033000946045,0.28201690316200256,0.5946865081787109
1700822872799039000,11.1110390625,-3.5278208255767822,1.7543185949325562,1.2974138259887695
1700822872808998000,11.120997802734376,-2.2191755771636963,2.9866650104522705,1.3479604721069336
1700822872818883000,11.130883056640625,-0.9064666032791138,4.7924041748046875,1.5034465789794922
1700822872828933000,11.14093310546875,-0.4423539638519287,5.685204029083252,1.5845766067504883
1700822872838848000,11.150847900390625,-0.08250045776367188,4.566051006317139,0.7509069442749023
1700822872848810000,11.16081005859375,-0.6740720272064209,2.0727334022521973,-0.9077329635620117
1700822872858826000,11.170825927734375,-1.3198225498199463,1.2334392070770264,-1.384455680847168
1700822872868871000,11.180870849609375,-1.5963102579116821,0.7893930673599243,-0.8975076675415039
1700822872878838000,11.190838134765626,-1.0418368577957153,-1.1968520879745483,-0.9926137924194336
1700822872888821000,11.200821044921875,-0.9487012624740601,-1.7740169763565063,-0.17015933990478516
1700822872899007000,11.211007080078126,-2.114586114883423,-1.7179784774780273,0.6101322174072266
1700822872908964000,11.220964111328126,2.2330477237701416,-2.7410454750061035,0.3190498352050781
1700822872918840000,11.230840087890625,4.668995380401611,-1.9470117092132568,1.8520269393920898
1700822872928953000,11.240953125,2.892700672149658,-2.6985721588134766,1.7567319869995117
1700822872940529000,11.25252880859375,1.707687258720398,-5.145347595214844,-0.691838264465332
1700822872949010000,11.261010009765625,-0.21698176860809326,-6.709151744842529,-1.6214065551757812
1700822872958854000,11.27085400390625,-3.6416192054748535,-4.9531707763671875,-0.38159942626953125
1700822872969040000,11.281039794921876,-5.9356560707092285,0.661865234375,1.4830312728881836
1700822872978646000,11.29064599609375,-2.268603563308716,2.561736583709717,1.1228761672973633
1700822872988739000,11.300739013671874,2.697233200073242,2.197503089904785,-0.3626384735107422
1700822872998674000,11.310673828125,3.472801685333252,1.3618513345718384,-0.5978851318359375
1700822873010367000,11.322366943359375,1.0289713144302368,1.719231367111206,-0.29482460021972656
1700822873018649000,11.330649169921875,-2.4017999172210693,2.5223374366760254,0.6234350204467773
1700822873028620000,11.3406201171875,-4.7356181144714355,2.8508994579315186,0.8516445159912109
1700822873038773000,11.35077294921875,-4.2616286277771,2.754615545272827,0.15360641479492188
1700822873048753000,11.3607529296875,-1.709218978881836,1.9794456958770752,-0.6244211196899414
1700822873058755000,11.370755126953124,0.4762183427810669,0.7097457647323608,-0.12171649932861328
1700822873068862000,11.380862060546875,0.10953390598297119,0.7839827537536621,1.2205162048339844
1700822873078915000,11.3909150390625,-0.26096677780151367,1.3663090467453003,2.511310577392578
1700822873088940000,11.40093994140625,-0.3669625520706177,2.9549245834350586,0.8778867721557617
1700822873098889000,11.410888916015624,-0.18220221996307373,2.2861485481262207,-0.6799831390380859
1700822873108891000,11.420890869140624,-0.579161524772644,0.33489394187927246,-1.634028434753418
1700822873118904000,11.430904052734375,-1.4936883449554443,-0.15520000457763672,-1.2053718566894531
1700822873128964000,11.440964111328125,-2.2619285583496094,0.4819297790527344,-0.1968822479248047
1700822873138783000,11.450782958984375,-2.1176860332489014,0.4699474573135376,0.7697048187255859
1700822873148965000,11.460965087890624,-0.70521080493927,-1.7704508304595947,1.3850173950195312
1700822873158941000,11.47094091796875,0.3613431453704834,-4.192732810974121,1.0719242095947266
1700822873168799000,11.480799072265626,0.6857376098632812,-5.393031597137451,0.30986881256103516
1700822873178953000,11.490952880859375,0.09454822540283203,-4.285959243774414,-0.43056392669677734
1700822873188915000,11.5009150390625,-0.9629448652267456,-1.6473981142044067,0.14023494720458984
1700822873198841000,11.510841064453125,-0.4240143299102783,-0.6288169622421265,-0.16571712493896484
1700822873208861000,11.52086083984375,-0.2008218765258789,-0.42495644092559814,-0.7015094757080078
1700822873218826000,11.530825927734375,-0.5755869150161743,-1.2304902076721191,-0.834834098815918
1700822873228834000,11.540833984375,-1.36819326877594,-1.2934989929199219,-0.2542438507080078
1700822873238864000,11.55086376953125,-1.841736912727356,-0.6095941066741943,0.1743459701538086
1700822873248970000,11.560969970703125,-1.9558227062225342,0.9906620979309082,1.1530170440673828
1700822873258912000,11.570912109375,-0.7033981084823608,2.2245805263519287,1.6452274322509766
1700822873271262000,11.583261962890624,0.6961281299591064,2.816960573196411,0.9483518600463867
1700822873288797000,11.600796875,0.18261218070983887,2.6416378021240234,-0.03837299346923828
1700822873298967000,11.610967041015625,-0.9736243486404419,1.8151344060897827,-0.40990543365478516
1700822873308745000,11.620744873046876,-2.3733394145965576,2.392878532409668,-0.024542808532714844
1700822873318942000,11.63094189453125,-3.264293670654297,3.959451675415039,0.8699188232421875
1700822873329047000,11.641047119140625,-2.5681567192077637,4.910177707672119,0.47699451446533203
1700822873338847000,11.650846923828125,-1.8386943340301514,5.106803894042969,-0.1700725555419922
1700822873348949000,11.660948974609376,-1.7474009990692139,5.014776706695557,-0.5457258224487305
1700822873358949000,11.67094921875,-1.8863980770111084,4.513620376586914,-0.7930307388305664
1700822873368895000,11.68089501953125,-1.6596531867980957,1.8582828044891357,-0.7797985076904297
1700822873378912000,11.690912109375,-1.0946096181869507,-2.5826845169067383,-0.10266780853271484
1700822873388809000,11.70080908203125,-1.1353716850280762,-6.402928352355957,0.8968410491943359
1700822873398820000,11.710820068359375,1.360858678817749,-12.922616958618164,-0.17522430419921875
1700822873408932000,11.72093212890625,2.539505958557129,-13.463469505310059,-0.646759033203125
1700822873419012000,11.73101220703125,2.0626049041748047,-9.140034675598145,-0.9906501770019531
1700822873428834000,11.740833984375,0.8502993583679199,-5.733235836029053,0.23966217041015625
1700822873439130000,11.751130126953125,0.23413872718811035,-3.325181245803833,-0.33401966094970703
1700822873448991000,11.760990966796875,0.7950851917266846,-2.4126322269439697,-1.2715959548950195
1700822873458712000,11.770712158203125,0.4093036651611328,-1.9276459217071533,-1.4415483474731445
1700822873468880000,11.7808798828125,-1.5083918571472168,-1.893193244934082,-0.8047647476196289
1700822873478874000,11.7908740234375,-3.1540374755859375,-2.2675695419311523,-0.1666707992553711
1700822873488894000,11.80089404296875,-3.97697114944458,-2.1374287605285645,0.5240621566772461
1700822873498878000,11.8108779296875,-3.467252254486084,-1.3894262313842773,1.2425651550292969
1700822873508886000,11.820885986328125,-1.8607127666473389,-0.7172025442123413,1.8011932373046875
1700822873518981000,11.830981201171875,-0.6720141172409058,0.621742844581604,1.822657585144043
1700822873528863000,11.840863037109376,-0.42504215240478516,1.9951602220535278,1.4558143615722656
1700822873538894000,11.85089404296875,-0.3839377164840698,2.058457374572754,1.0607690811157227
1700822873548898000,11.86089794921875,-0.36734068393707275,0.0892491340637207,0.4183311462402344
1700822873558955000,11.870955078125,-0.5356459617614746,-1.6310170888900757,0.07903480529785156
1700822873569375000,11.881375,0.022948861122131348,-0.8988608121871948,-0.10658645629882812
1700822873578860000,11.890860107421876,-0.25350308418273926,0.5242259502410889,0.039223670959472656
1700822873588961000,11.9009609375,-1.0182135105133057,1.5918723344802856,0.017953872680664062
1700822873598969000,11.910968994140624,-1.6116379499435425,2.102476119995117,0.2898540496826172
1700822873608789000,11.9207890625,-2.0271010398864746,2.898972511291504,0.44959545135498047
1700822873618883000,11.930883056640624,-2.0108485221862793,3.741569995880127,0.4318866729736328
1700822873628880000,11.9408798828125,-1.5866587162017822,3.9572701454162598,0.9442787170410156
1700822873638703000,11.950703125,-0.9972635507583618,3.7885048389434814,1.4777259826660156
1700822873652009000,11.964009033203125,-0.7376284003257751,3.131640911102295,2.2184391021728516
1700822873668682000,11.980681884765625,-1.3131202459335327,3.772733688354492,2.087540626525879
1700822873678787000,11.990787109375,-2.078768491744995,3.437594413757324,1.7631950378417969
1700822873688884000,12.000884033203125,-1.7286031246185303,1.4748612642288208,0.8999471664428711
1700822873698746000,12.01074609375,-0.5652189254760742,-0.3478357791900635,0.49246692657470703
1700822873708647000,12.02064697265625,-0.9651449918746948,0.3451904058456421,-0.28583335876464844
1700822873718774000,12.03077392578125,-1.056277871131897,-0.8488470315933228,-0.7246408462524414
1700822873728721000,12.040720947265624,-0.2394324541091919,-2.1427602767944336,-2.055393695831299
1700822873738625000,12.050625,0.6587550640106201,-2.8992435932159424,-3.476508140563965
1700822873748746000,12.06074609375,-0.16836106777191162,-1.6427204608917236,-2.6574301719665527
1700822873758765000,12.07076513671875,-2.341247320175171,0.6934268474578857,-0.4863882064819336
1700822873768772000,12.080772216796875,-2.3037352561950684,-0.31402790546417236,0.4610729217529297
1700822873778789000,12.0907890625,-0.7064821720123291,-2.5978667736053467,-0.3143043518066406
1700822873788824000,12.100823974609375,-0.3802323341369629,-3.5432748794555664,-0.1260232925415039
1700822873799026000,12.11102587890625,0.25732195377349854,-3.912569522857666,0.15482234954833984
1700822873808874000,12.1208740234375,1.925763726234436,-3.6472082138061523,0.2533130645751953
1700822873818961000,12.1309609375,1.4125839471817017,-1.1210930347442627,1.049910545349121
1700822873828824000,12.140823974609376,-0.9583564400672913,0.37600278854370117,0.7310895919799805
1700822873838685000,12.150684814453125,-2.345202684402466,0.9765335321426392,0.27036190032958984
1700822873848981000,12.16098095703125,-2.3092873096466064,1.7304317951202393,0.04148387908935547
1700822873858953000,12.170952880859375,-1.3651763200759888,1.8034682273864746,-0.2389211654663086
1700822873868901000,12.180901123046874,-0.5909592509269714,1.1168174743652344,-0.13068103790283203
1700822873878843000,12.1908427734375,-0.8554399013519287,0.15771102905273438,0.25682640075683594
1700822873889058000,12.20105810546875,-1.5134251117706299,-0.4618011713027954,0.6471710205078125
1700822873899150000,12.211150146484375,-1.5653444528579712,-0.4786468744277954,1.0712041854858398
1700822873912269000,12.22426904296875,-0.947443962097168,-0.07682156562805176,1.284987449645996
1700822873928775000,12.24077490234375,-0.6483593583106995,-0.1274477243423462,0.5379753112792969
1700822873938830000,12.250830078125,-0.3814697861671448,-0.23598694801330566,-0.4782886505126953
1700822873948723000,12.260722900390626,-0.4374474287033081,-0.34512829780578613,-0.7652626037597656
1700822873958654000,12.270654052734375,-0.6363582015037537,-0.3773766756057739,-0.6450681686401367
1700822873968930000,12.280929931640625,-1.2701354026794434,0.8689022064208984,-0.11241817474365234
1700822873978767000,12.29076708984375,-0.6458180546760559,0.25788140296936035,-0.3533506393432617
1700822873988777000,12.30077685546875,-0.35913848876953125,-0.6076996326446533,0.6026535034179688
1700822873998762000,12.310761962890625,-0.7306035161018372,-0.9359457492828369,1.2200469970703125
1700822874008655000,12.320655029296875,-1.0041797161102295,-0.8418933749198914,1.0686159133911133
1700822874018787000,12.330787109375,-0.1833411455154419,-0.1352558135986328,-0.24063587188720703
1700822874029043000,12.34104296875,-0.2635904550552368,-0.4054553508758545,-0.37642669677734375
1700822874038767000,12.35076708984375,-0.46987199783325195,-0.3930504322052002,-0.31401920318603516
1700822874049157000,12.3611572265625,-0.4418766498565674,-0.12797784805297852,-0.13968467712402344
1700822874058766000,12.37076611328125,-0.48243284225463867,-0.0242079496383667,-0.10321807861328125
1700822874068741000,12.3807412109375,-0.8396093249320984,0.056944966316223145,-0.09767341613769531
1700822874078951000,12.390950927734375,-1.365403413772583,0.2868295907974243,-0.06896686553955078
1700822874088841000,12.400841064453125,-1.5830574035644531,0.5908846855163574,0.1333169937133789
1700822874098788000,12.4107880859375,-1.3492329120635986,0.547559380531311,0.3570585250854492
1700822874108840000,12.42083984375,-0.8294169306755066,0.31004178524017334,0.5621824264526367
1700822874118836000,12.4308359375,-0.2924666404724121,-0.20733630657196045,0.7324428558349609
1700822874128917000,12.4409169921875,-0.18757522106170654,-0.22631537914276123,0.6991281509399414
1700822874138654000,12.450654052734375,-0.5650295615196228,-0.10377228260040283,0.5556497573852539
1700822874148785000,12.460784912109375,-0.9770070314407349,0.015531301498413086,0.3453845977783203
1700822874158966000,12.470966064453124,-0.8471150994300842,-0.21785926818847656,0.01584625244140625
1700822874168722000,12.480721923828124,-0.46311700344085693,-0.31240153312683105,-0.4628753662109375
1700822874178928000,12.49092822265625,-0.509626030921936,-0.15620672702789307,-0.6228532791137695
1700822874188812000,12.50081201171875,-0.8614584803581238,0.052579522132873535,-0.2071847915649414
1700822874198988000,12.510988037109374,-0.5278239250183105,-0.0116196870803833,0.20056438446044922
1700822874208821000,12.520821044921876,0.12926816940307617,-0.33715951442718506,0.38525390625
1700822874218845000,12.530844970703125,0.6118816137313843,-0.11295914649963379,0.44150829315185547
1700822874228762000,12.54076220703125,0.6184056997299194,-0.6465706825256348,-0.1140279769897461
1700822874238851000,12.55085107421875,0.23191165924072266,-0.5470329523086548,-0.6119232177734375
1700822874248833000,12.5608330078125,-0.653281569480896,0.29093289375305176,-0.48554229736328125
1700822874258986000,12.570986083984375,-0.06577682495117188,-1.9314318895339966,-0.6858015060424805
1700822874270033000,12.582032958984374,-0.47126317024230957,-1.212075114250183,-0.24314117431640625
1700822874278832000,12.59083203125,-0.25784432888031006,-0.4048861265182495,-0.5259685516357422
1700822874288893000,12.600892822265624,0.6190431118011475,0.08651101589202881,-1.773115634918213
1700822874298841000,12.610841064453124,0.062383055686950684,0.6582224369049072,-1.9617886543273926
1700822874308918000,12.62091796875,-1.2172627449035645,0.5563894510269165,-1.5261812210083008
1700822874318826000,12.630825927734374,-1.6468396186828613,-0.01413106918334961,-1.6238703727722168
1700822874328811000,12.64081103515625,-1.7036141157150269,1.1431341171264648,1.2838401794433594
1700822874338815000,12.65081494140625,-0.8649331331253052,0.14157354831695557,4.036418914794922
1700822874348688000,12.66068798828125,1.3295742273330688,-1.8764879703521729,4.04874324798584
1700822874358889000,12.670888916015626,2.370447874069214,-2.5505099296569824,1.7109670639038086
1700822874368921000,12.680921142578125,1.5394785404205322,-2.5610504150390625,-0.22012042999267578
1700822874378903000,12.690903076171875,-1.1160039901733398,-0.36911243200302124,0.18737316131591797
1700822874388932000,12.70093212890625,-1.8245242834091187,-0.9414780139923096,0.024988174438476562
1700822874398884000,12.710884033203126,-0.4262903928756714,-1.4734306335449219,-0.7292985916137695
1700822874408924000,12.720923828125,0.2591211795806885,-0.39890962839126587,-0.3855113983154297
1700822874419053000,12.731052978515624,-0.059801578521728516,0.5758591890335083,0.07101249694824219
1700822874429016000,12.74101611328125,-0.12709927558898926,0.937921404838562,0.17389965057373047
1700822874438844000,12.750843994140626,0.3681222200393677,0.2853381633758545,-0.010667800903320312
1700822874448878000,12.760878173828125,0.571815013885498,-0.4922822117805481,-0.2508354187011719
