time,seconds_elapsed,z,y,x
1700822861907059000,0.219058837890625,0.18226692080497742,-0.0029016099870204926,0.2848922908306122
1700822861917219000,0.229218994140625,0.11018481850624084,0.004428773187100887,0.23541219532489777
1700822861927144000,0.23914404296875,0.07964155822992325,-0.0328340083360672,0.16210836172103882
1700822861937244000,0.249243896484375,0.08513934165239334,-0.09636399149894714,0.07292203605175018
1700822861947044000,0.259044189453125,0.10407616943120956,-0.16844609379768372,-0.02054034359753132
1700822861957308000,0.269307861328125,0.16088663041591644,-0.19532416760921478,-0.18975001573562622
1700822861967019000,0.27901904296875,0.1834886521100998,-0.18188512325286865,-0.26488643884658813
1700822861977193000,0.28919287109375,0.20486892759799957,-0.19593502581119537,-0.3161991238594055
1700822861987198000,0.299197998046875,0.2286926805973053,-0.18616119027137756,-0.34002286195755005
1700822861997202000,0.309201904296875,0.25679248571395874,-0.17211128771305084,-0.3412446081638336
1700822862007155000,0.319155029296875,0.27145323157310486,-0.15745051205158234,-0.33391422033309937
1700822862017182000,0.329181884765625,0.2488512247800827,-0.14095716178417206,-0.3180317282676697
1700822862027248000,0.339248046875,0.20425806939601898,-0.1293507218360901,-0.2722168266773224
1700822862037181000,0.349180908203125,0.15416711568832397,-0.12629638612270355,-0.19341520965099335
1700822862047237000,0.359237060546875,0.1071304902434349,-0.15622878074645996,-0.09689849615097046
1700822862057060000,0.36906005859375,0.08147415518760681,-0.21792617440223694,-0.002825251780450344
1700822862067652000,0.379652099609375,0.0771980956196785,-0.30344730615615845,0.07414376735687256
1700822862077045000,0.389044921875,0.08513934165239334,-0.3804163336753845,0.11140654981136322
1700822862087048000,0.3990478515625,0.10651962459087372,-0.4207334518432617,0.09857837855815887
1700822862097052000,0.409052001953125,0.13095423579216003,-0.42928555607795715,0.03504839166998863
1700822862107308000,0.41930810546875,0.1370628923177719,-0.41462478041648865,-0.07002042979001999
1700822862117297000,0.429296875,0.1370628923177719,-0.2942843437194824,-0.2007455974817276
1700822862127068000,0.43906787109375,0.002672535367310047,0.5823072791099548,-0.10911580175161362
1700822862137232000,0.44923193359375,-0.18669569492340088,0.6293439269065857,0.11018481850624084
1700822862147243000,0.459242919921875,-0.140269935131073,0.15347988903522491,0.12912164628505707
1700822862157082000,0.46908203125,-0.02054034359753132,0.1791362315416336,0.1431715488433838
1700822862167090000,0.47908984375,0.02710714563727379,-0.08781187981367111,0.1682170182466507
1700822862177184000,0.48918408203125,0.048487428575754166,-0.24785856902599335,0.17004960775375366
1700822862187191000,0.49919091796875,0.06803511828184128,-0.3309362530708313,0.122402124106884
1700822862197307000,0.509306884765625,0.08758280426263809,-0.33276882767677307,0.05520694702863693
1700822862207261000,0.519260986328125,0.10407616943120956,-0.32421672344207764,-0.02603813074529171
1700822862217073000,0.529072998046875,0.11140654981136322,-0.4066835343837738,-0.10239628702402115
1700822862227285000,0.539284912109375,0.11873693019151688,-0.5074763298034668,-0.16470454633235931
1700822862237257000,0.549257080078125,0.11629346758127213,-0.575893223285675,-0.20929770171642303
1700822862247018000,0.55901806640625,0.09613491594791412,-0.6058256030082703,-0.22823452949523926
1700822862257006000,0.569006103515625,0.01061378326267004,-0.43905940651893616,-0.15920674800872803
1700822862267251000,0.5792509765625,-0.0742964819073677,-0.20204368233680725,-0.007712173741310835
1700822862277074000,0.589073974609375,-0.180587038397789,0.08200865983963013,0.315435528755188
1700822862287128000,0.599128173828125,-0.14760030806064606,0.13576480746269226,0.41256311535835266
1700822862297261000,0.609260986328125,-0.12133310735225677,0.14737124741077423,0.44799330830574036
1700822862307160000,0.61916015625,-0.09812022745609283,0.1088867336511612,0.4516584873199463
1700822862317250000,0.62925,-0.06818783283233643,0.06490442901849747,0.43272167444229126
1700822862327059000,0.639058837890625,-0.019318614155054092,0.0025961773935705423,0.3765220642089844
1700822862337173000,0.649173095703125,0.039935316890478134,-0.06887505948543549,0.28244882822036743
1700822862347028000,0.659028076171875,0.0924697294831276,-0.16722436249256134,0.16210836172103882
1700822862357044000,0.6690439453125,0.13523028790950775,-0.30833423137664795,0.057039543986320496
1700822862367249000,0.679248779296875,0.12056952714920044,-0.33337971568107605,0.005115996580570936
1700822862377183000,0.689182861328125,0.06620252132415771,-0.21670444309711456,-0.016264287754893303
1700822862387033000,0.699033203125,0.028939740732312202,-0.1488984078168869,-0.0339793786406517
1700822862397105000,0.70910498046875,0.01488984003663063,-0.24113905429840088,-0.05169447138905525
1700822862407040000,0.7190400390625,-0.0022143865935504436,-0.36819902062416077,-0.06635523587465286
1700822862417164000,0.7291640625,-0.04253149405121803,-0.45005497336387634,-0.06269004940986633
1700822862427029000,0.739029052734375,-0.09140071272850037,-0.5251913666725159,-0.02603813074529171
1700822862437174000,0.749174072265625,-0.14332425594329834,-0.5673410892486572,0.01366810966283083
1700822862447029000,0.759029052734375,-0.1702023297548294,-0.5429064631462097,0.0264962799847126
1700822862457053000,0.769052978515625,-0.1610393524169922,-0.48487427830696106,-0.004046982154250145
1700822862467134000,0.779134033203125,-0.12438743561506271,-0.40851613879203796,-0.05841398984193802
1700822862477078000,0.789078125,-0.08773551881313324,-0.34865134954452515,-0.10300715267658234
1700822862487122000,0.799121826171875,-0.05780312418937683,-0.34376442432403564,-0.10178542137145996
1700822862497257000,0.809257080078125,-0.01992947794497013,-0.44577890634536743,-0.05169447138905525
1700822862507065000,0.819065185546875,0.030161472037434578,-0.688903272151947,0.02344195358455181
1700822862517193000,0.82919287109375,0.07353290170431137,-1.0407617092132568,0.1382846236228943
1700822862527128000,0.839128173828125,0.09980010986328125,-1.4512630701065063,0.33192890882492065
1700822862537285000,0.84928515625,0.12118039280176163,-1.9845484495162964,0.6123160719871521
1700822862547296000,0.8592958984375,0.11385001242160797,-2.5355489253997803,0.9189704060554504
1700822862557541000,0.869541015625,0.04726569727063179,-2.8849637508392334,1.1547644138336182
1700822862567432000,0.879431884765625,-0.07612907886505127,-2.900846242904663,1.2433398962020874
1700822862578343000,0.890343017578125,-0.2758820056915283,-2.224618434906006,0.9220247268676758
1700822862587170000,0.899170166015625,-0.23861923813819885,-1.742034912109375,0.6043748259544373
1700822862597612000,0.909612060546875,-0.13721559941768646,-1.1898127794265747,0.2989421784877777
1700822862608139000,0.920138916015625,-0.06818783283233643,-0.651029646396637,0.0924697294831276
1700822862617303000,0.929302978515625,-0.05719225853681564,-0.25274550914764404,0.028328875079751015
1700822862627382000,0.939382080078125,-0.0944550409913063,-0.07009678333997726,0.04115704447031021
1700822862637147000,0.94914697265625,-0.13355042040348053,-0.11713340878486633,0.08391761034727097
1700822862647494000,0.959493896484375,-0.1408807933330536,-0.2600758671760559,0.12484558671712875
1700822862657107000,0.96910693359375,-0.14149166643619537,-0.42500948905944824,0.14866933226585388
1700822862667438000,0.97943798828125,-0.13293954730033875,-0.5514585971832275,0.17004960775375366
1700822862677239000,0.989239013671875,-0.10667234659194946,-0.5618433356285095,0.20547980070114136
1700822862687311000,0.99931103515625,-0.10117455571889877,-0.4054618179798126,0.26351198554039
1700822862697195000,1.009195068359375,-0.1451568603515625,-0.10797043144702911,0.3459787964820862
1700822862707321000,1.019321044921875,-0.21907155215740204,0.299476683139801,0.4369977116584778
1700822862717322000,1.029322021484375,-0.30398181080818176,0.6861543655395508,0.4858669340610504
1700822862727281000,1.039281005859375,-0.38461601734161377,0.9219483733177185,0.4712061882019043
1700822862737106000,1.04910595703125,-0.46647197008132935,1.050840973854065,0.4101196527481079
1700822862747237000,1.059237060546875,-0.5263367891311646,1.0734429359436035,0.30688342452049255
1700822862757181000,1.069180908203125,-0.5153411626815796,1.0227410793304443,0.1419498175382614
1700822862767135000,1.079135009765625,-0.41149410605430603,0.9989174008369446,-0.059635721147060394
1700822862777348000,1.08934814453125,-0.23861923813819885,0.9677632451057434,-0.22884538769721985
1700822862787138000,1.099137939453125,-0.051083605736494064,0.8162686824798584,-0.3161991238594055
1700822862797214000,1.1092138671875,0.024663684889674187,0.6372851729393005,-0.3583488166332245
1700822862807224000,1.11922412109375,0.008170322515070438,0.7820602059364319,-0.3772856593132019
1700822862817441000,1.12944091796875,-0.0492510087788105,1.116814374923706,-0.4169918894767761
1700822862827291000,1.139290771484375,-0.1359938681125641,1.4362969398498535,-0.5208389759063721
1700822862837474000,1.14947412109375,-0.21357376873493195,1.7478381395339966,-0.6387359499931335
1700822862847483000,1.15948291015625,-0.2361757755279541,2.0392208099365234,-0.728533148765564
1700822862857380000,1.169380126953125,-0.22701279819011688,2.2267565727233887,-0.777402400970459
1700822862867376000,1.179376220703125,-0.20685423910617828,2.182774305343628,-0.7499134540557861
1700822862877447000,1.189447021484375,-0.17386752367019653,1.9182696342468262,-0.6625596880912781
1700822862887129000,1.199129150390625,-0.1353830099105835,1.6048957109451294,-0.5526039600372314
1700822862897266000,1.209265869140625,-0.05169447138905525,1.3361150026321411,-0.3461315333843231
1700822862907224000,1.21922412109375,-0.04986187443137169,1.2945761680603027,-0.3229186534881592
1700822862917130000,1.2291298828125,-0.08284860104322433,1.30496084690094,-0.3125339448451996
1700822862927289000,1.2392890625,-0.1506546437740326,1.3495540618896484,-0.27954721450805664
1700822862937476000,1.24947607421875,-0.20807597041130066,1.314734697341919,-0.25328001379966736
1700822862947328000,1.259327880859375,-0.23251058161258698,1.1681270599365234,-0.2367866337299347
1700822862957315000,1.269315185546875,-0.2679407596588135,1.021519422531128,-0.18669569492340088
1700822862967446000,1.279446044921875,-0.30031663179397583,0.9207266569137573,-0.10300715267658234
1700822862977420000,1.289419921875,-0.3058144152164459,0.8028296232223511,-0.026648996397852898
1700822862987376000,1.299376220703125,-0.2569451928138733,0.671493649482727,0.01488984003663063
1700822862997483000,1.30948291015625,-0.17875444889068604,0.6006332635879517,0.04360050708055496
1700822863007370000,1.319369873046875,-0.11950051039457321,0.5768095254898071,0.04970915988087654
1700822863017410000,1.32941015625,-0.0895681157708168,0.5609270334243774,0.0038942659739404917
1700822863027141000,1.33914111328125,-0.06757696717977524,0.6061310172080994,-0.06757696717977524
1700822863037115000,1.349114990234375,-0.0694095641374588,0.6433938145637512,-0.1249983012676239
1700822863047151000,1.359151123046875,-0.08834638446569443,0.5884159207344055,-0.12438743561506271
1700822863057091000,1.369091064453125,-0.11217013001441956,0.34162637591362,-0.06269004940986633
1700822863067234000,1.379234130859375,-0.13660474121570587,-0.03039054572582245,0.018555032089352608
1700822863077238000,1.389238037109375,-0.1359938681125641,-0.2454151064157486,0.0973566472530365
1700822863087026000,1.39902587890625,-0.1048397496342659,-0.18310685455799103,0.15416711568832397
1700822863097216000,1.409216064453125,-0.07857254147529602,0.01970040425658226,0.16516269743442535
1700822863107137000,1.419136962890625,-0.09323330968618393,0.09178250283002853,0.11507174372673035
1700822863117201000,1.429200927734375,-0.10056369006633759,0.09789115190505981,0.03443752974271774
1700822863127154000,1.43915380859375,-0.07002042979001999,0.14004085958003998,-0.05902485549449921
1700822863137169000,1.4491689453125,0.005726861767470837,0.16630806028842926,-0.14698944985866547
1700822863147213000,1.459213134765625,0.0918588638305664,0.10399980843067169,-0.16714800894260406
1700822863157333000,1.4693330078125,0.13584116101264954,-0.08231408894062042,-0.07857254147529602
1700822863167292000,1.4792919921875,0.12056952714920044,-0.3804163336753845,0.12056952714920044
1700822863177348000,1.48934814453125,0.07903069257736206,-0.7145596146583557,0.35697436332702637
1700822863187234000,1.499234130859375,0.05398521572351456,-1.042594313621521,0.5310709476470947
1700822863197410000,1.50941015625,0.05093089118599892,-1.332755208015442,0.6263659596443176
1700822863207357000,1.51935693359375,0.03749185428023338,-1.5056301355361938,0.5750532746315002
1700822863217455000,1.529455078125,0.01061378326267004,-1.3975069522857666,0.4614323377609253
1700822863227410000,1.539409912109375,-0.0742964819073677,-1.31748366355896,0.33253976702690125
1700822863237240000,1.549239990234375,-0.180587038397789,-1.399950385093689,0.22747094929218292
1700822863247427000,1.559427001953125,-0.3155882656574249,-1.600925087928772,0.10468703508377075
1700822863257368000,1.5693681640625,-0.47563496232032776,-1.8336647748947144,-0.05291620269417763
1700822863267363000,1.579363037109375,-0.5684864521026611,-1.9650007486343384,-0.23373231291770935
1700822863277422000,1.589422119140625,-0.5397757887840271,-1.9674441814422607,-0.38583776354789734
1700822863287288000,1.5992880859375,-0.43653959035873413,-1.9008599519729614,-0.4676937162876129
1700822863297551000,1.609551025390625,-0.3363576829433441,-1.9350683689117432,-0.4786892831325531
1700822863307418000,1.619418212890625,-0.20196732878684998,-2.151925563812256,-0.44142648577690125
1700822863317434000,1.62943408203125,-0.08407033234834671,-2.372447967529297,-0.43592870235443115
1700822863327551000,1.639551025390625,-0.04253149405121803,-2.2997548580169678,-0.47746753692626953
1700822863337301000,1.649301025390625,-0.14882203936576843,-1.6235270500183105,-0.37972912192344666
1700822863347507000,1.6595068359375,-0.27527114748954773,-1.6473509073257446,-0.39011383056640625
1700822863357416000,1.669416015625,-0.27832546830177307,-1.7982345819473267,-0.4487568736076355
1700822863367570000,1.67956982421875,-0.22884538769721985,-1.7976237535476685,-0.49579349160194397
1700822863378447000,1.690447021484375,-0.22395847737789154,-1.7047722339630127,-0.5208389759063721
1700822863387293000,1.69929296875,-0.2612212598323822,-1.592373013496399,-0.511676013469696
1700822863397536000,1.709535888671875,-0.25022566318511963,-1.2735012769699097,-0.4841870665550232
1700822863407417000,1.7194169921875,-0.19341520965099335,-1.0028879642486572,-0.37972912192344666
1700822863417412000,1.729412109375,-0.11278099566698074,-1.0322095155715942,-0.14454598724842072
1700822863427535000,1.73953515625,0.006337726954370737,-1.1268936395645142,0.10529789328575134
1700822863437462000,1.7494619140625,0.10102184116840363,-1.1946996450424194,0.25251641869544983
1700822863447432000,1.759431884765625,0.07414376735687256,-1.1415544748306274,0.2787836194038391
1700822863457422000,1.769422119140625,-0.08040513843297958,-0.8941540122032166,0.1981494128704071
1700822863467415000,1.7794150390625,-0.27466028928756714,-0.6094908118247986,0.13034337759017944
1700822863477843000,1.789843017578125,-0.4890739917755127,-0.5539020895957947,0.223194882273674
1700822863487410000,1.799409912109375,-0.7297548651695251,-0.718224823474884,0.4925864636898041
1700822863497436000,1.809435791015625,-0.9447794556617737,-0.9686795473098755,0.8346710205078125
1700822863507288000,1.8192880859375,-1.116432547569275,-1.1391109228134155,1.144379734992981
1700822863517520000,1.829519775390625,-1.0932197570800781,-1.4347697496414185,1.4345406293869019
1700822863527497000,1.8394970703125,-0.9014080166816711,-1.4072808027267456,1.3758976459503174
1700822863537396000,1.84939599609375,-0.6167448163032532,-1.1910345554351807,1.1816424131393433
1700822863547397000,1.859397216796875,-0.35101842880249023,-0.822682797908783,0.8896488547325134
1700822863557406000,1.869406005859375,-0.2367866337299347,-0.45066583156585693,0.5701663494110107
1700822863567400000,1.87939990234375,-0.29420796036720276,-0.1586722433567047,0.3001639246940613
1700822863577458000,1.8894580078125,-0.4377613067626953,0.14065171778202057,0.12851077318191528
1700822863587393000,1.89939306640625,-0.5568800568580627,0.3300199508666992,0.018555032089352608
1700822863597434000,1.90943408203125,-0.5910884737968445,0.24816401302814484,-0.051083605736494064
1700822863607410000,1.919409912109375,-0.5599343776702881,-0.02977968007326126,-0.11827878654003143
1700822863617388000,1.929387939453125,-0.5727625489234924,-0.275958389043808,-0.2520582675933838
1700822863627413000,1.9394130859375,-0.644844651222229,-0.32849279046058655,-0.443869948387146
1700822863637413000,1.9494130859375,-0.7938957214355469,-0.2099849283695221,-0.6741661429405212
1700822863647305000,1.959304931640625,-0.9887617826461792,-0.06459899991750717,-0.9166796803474426
1700822863657367000,1.969366943359375,-1.0272462368011475,-0.037110064178705215,-1.0828349590301514
1700822863667396000,1.97939599609375,-0.8067238926887512,0.021532999351620674,-1.1903473138809204
1700822863677361000,1.98936083984375,-0.5550474524497986,-0.05726861581206322,-1.2398273944854736
1700822863688264000,2.000263916015625,-0.39622247219085693,-0.16050484776496887,-1.148808479309082
1700822863697353000,2.00935302734375,-0.27466028928756714,-0.26374107599258423,-1.0492373704910278
1700822863707334000,2.019333984375,-0.2673299014568329,-0.6559165716171265,-1.0651198625564575
1700822863717501000,2.0295009765625,-0.292375385761261,-1.0157161951065063,-1.2221122980117798
1700822863727230000,2.03922998046875,-0.1860848218202591,-1.117730736732483,-1.4200326204299927
1700822863737348000,2.04934814453125,0.14866933226585388,-1.3309226036071777,-1.5672510862350464
1700822863747485000,2.05948486328125,0.5304601192474365,-1.6455183029174805,-1.682093858718872
1700822863757762000,2.069761962890625,0.686841607093811,-1.6986634731292725,-1.726686954498291
1700822863767424000,2.079424072265625,0.5384013652801514,-1.6980526447296143,-1.6197855472564697
1700822863777345000,2.089344970703125,0.21464277803897858,-1.600925087928772,-1.4359151124954224
1700822863787747000,2.0997470703125,-0.10056369006633759,-1.3468050956726074,-1.233718752861023
1700822863797467000,2.109466796875,-0.30214923620224,-1.268614411354065,-1.051069974899292
1700822863807628000,2.1196279296875,-0.3778965175151825,-1.479362964630127,-0.8952993750572205
1700822863817536000,2.129535888671875,-0.18241962790489197,-1.5740469694137573,-0.6088035702705383
1700822863827514000,2.13951416015625,-0.18303050100803375,-1.1861475706100464,-0.5171737670898438
1700822863837607000,2.14960693359375,-0.39622247219085693,-0.9112582206726074,-0.4628067910671234
1700822863847285000,2.159284912109375,-0.6625596880912781,-0.7988590002059937,-0.5519931316375732
1700822863857323000,2.169322998046875,-0.870864748954773,-1.042594313621521,-0.8830820918083191
1700822863867314000,2.17931396484375,-0.9502772688865662,-1.4934128522872925,-1.2734249830245972
1700822863877256000,2.189255859375,-0.5831472277641296,-1.9283488988876343,-1.4462997913360596
1700822863887379000,2.19937890625,0.12545645236968994,-2.202016592025757,-1.453019380569458
1700822863897403000,2.20940283203125,0.6789003610610962,-2.2124011516571045,-1.4444671869277954
1700822863907382000,2.219382080078125,0.7784714102745056,-1.9876028299331665,-1.4829517602920532
1700822863917376000,2.2293759765625,0.5090798139572144,-1.6430747509002686,-1.5880205631256104
1700822863927319000,2.239319091796875,0.039324451237916946,-1.35535728931427,-1.7309629917144775
1700822863937270000,2.24927001953125,-0.40110939741134644,-1.0994046926498413,-1.8928422927856445
1700822863947403000,2.259403076171875,-0.6521750092506409,-0.9815077185630798,-2.098093032836914
1700822863957464000,2.269464111328125,-0.6393468379974365,-1.1983648538589478,-2.3344979286193848
1700822863967274000,2.27927392578125,-0.3571271002292633,-1.8403842449188232,-2.581287384033203
1700822863977160000,2.289159912109375,-0.01687515154480934,-2.3327417373657227,-2.751718759536743
1700822863987342000,2.299342041015625,0.07292203605175018,-2.0957260131835938,-2.860452890396118
1700822863997443000,2.309443115234375,-0.1958586722612381,-1.3767375946044922,-3.0681469440460205
1700822864007465000,2.31946484375,-0.6411794424057007,-0.5398521423339844,-3.2581262588500977
1700822864017356000,2.32935595703125,-1.0406852960586548,0.10216721147298813,-3.2990541458129883
1700822864027469000,2.339468994140625,-1.222723126411438,0.20234911143779755,-3.21964168548584
1700822864037326000,2.349326171875,-1.0828349590301514,-0.13607023656368256,-3.0259974002838135
1700822864047474000,2.359473876953125,-0.7010442018508911,-0.7359399199485779,-2.7553839683532715
1700822864057463000,2.369463134765625,-0.28443413972854614,-1.4506522417068481,-2.4597253799438477
1700822864067260000,2.379260009765625,0.04787656292319298,-2.012648344039917,-2.2306509017944336
1700822864077478000,2.389477783203125,0.22014056146144867,-2.2288944721221924,-2.218433380126953
1700822864087338000,2.399337890625,0.10529789328575134,-2.197129487991333,-2.393141031265259
1700822864097426000,2.409426025390625,-0.23373231291770935,-1.9179641008377075,-2.5348618030548096
1700822864107478000,2.41947802734375,-0.5642104148864746,-1.4188872575759888,-2.595337390899658
1700822864117264000,2.429263916015625,-0.7236462235450745,-1.048092007637024,-2.6356544494628906
1700822864127323000,2.439322998046875,-0.6497315168380737,-0.9711230397224426,-2.6136631965637207
1700822864137283000,2.449282958984375,-0.3125339448451996,-1.4750868082046509,-2.362597703933716
1700822864147170000,2.459170166015625,-0.2526691257953644,-1.676672339439392,-2.192777156829834
1700822864157083000,2.469082763671875,-0.29420796036720276,-1.657124638557434,-2.0351738929748535
1700822864167086000,2.479086181640625,-0.40660718083381653,-1.5300647020339966,-1.9716439247131348
1700822864177025000,2.48902490234375,-0.5037347674369812,-1.365131139755249,-1.972254753112793
1700822864187160000,2.49916015625,-0.5104542970657349,-1.2747230529785156,-1.9435441493988037
1700822864197063000,2.50906298828125,-0.41515928506851196,-1.3468050956726074,-1.8287014961242676
1700822864207256000,2.519256103515625,-0.27893635630607605,-1.4928019046783447,-1.614898681640625
1700822864217253000,2.529253173828125,-0.20379991829395294,-1.5538884401321411,-1.3339005708694458
1700822864227422000,2.539421875,-0.1964695304632187,-1.4201090335845947,-1.1243737936019897
1700822864237244000,2.549243896484375,-0.21357376873493195,-1.1299480199813843,-1.054124355316162
1700822864247234000,2.559234130859375,-0.21418462693691254,-0.8953757286071777,-1.07061767578125
1700822864257417000,2.5694169921875,-0.09873109310865402,-0.9161451458930969,-1.120708703994751
1700822864267297000,2.579297119140625,0.15111279487609863,-1.1372783184051514,-1.205618977546692
1700822864277420000,2.589419921875,0.5139667391777039,-1.3590224981307983,-1.2624293565750122
1700822864287367000,2.599366943359375,0.8236754536628723,-1.3938417434692383,-1.0559569597244263
1700822864297338000,2.609338134765625,0.9360746145248413,-1.109789490699768,-0.6784422397613525
1700822864307314000,2.61931396484375,0.9886090159416199,-0.6241515874862671,-0.45486554503440857
1700822864317175000,2.629175048828125,1.0002155303955078,-0.2295326143503189,-0.48052188754081726
1700822864327421000,2.6394208984375,0.6648504734039307,-0.21242839097976685,-0.6570619344711304
1700822864337263000,2.64926318359375,0.3392592966556549,-0.0029016099870204926,-0.5501605272293091
1700822864347343000,2.659343017578125,0.2592359483242035,0.3825543522834778,-0.3980550765991211
1700822864357381000,2.669381103515625,0.20425806939601898,0.4479169547557831,-0.4597524404525757
1700822864367314000,2.67931396484375,0.17737999558448792,0.3917173445224762,-0.6271295547485352
1700822864377544000,2.6895439453125,0.15111279487609863,0.2958115041255951,-0.776180624961853
1700822864387707000,2.699706787109375,0.08147415518760681,0.15042556822299957,-0.8164977431297302
1700822864397433000,2.70943310546875,-0.01992947794497013,-0.0022907445672899485,-0.7529677748680115
1700822864407527000,2.71952685546875,-0.04069889709353447,-0.2967278063297272,-0.5635995268821716
1700822864417254000,2.72925390625,0.14989106357097626,-0.6772968173027039,-0.3485749661922455
1700822864427419000,2.7394189453125,0.3899610936641693,-1.0932960510253906,-0.18852828443050385
1700822864437443000,2.749443115234375,0.4602105915546417,-1.3761266469955444,-0.0999528244137764
1700822864447537000,2.759536865234375,0.25190556049346924,-1.2472341060638428,-0.04375322163105011
1700822864457426000,2.769426025390625,0.1975385546684265,-1.1775954961776733,-0.1451568603515625
1700822864467146000,2.77914599609375,0.2995530366897583,-1.2264647483825684,-0.2813797891139984
1700822864477440000,2.78943994140625,0.5665011405944824,-1.3070988655090332,-0.2654972970485687
1700822864487412000,2.799411865234375,0.7131088376045227,-1.2716686725616455,-0.048029281198978424
1700822864497552000,2.8095517578125,0.7179957628250122,-1.1091785430908203,0.17676913738250732
1700822864507427000,2.819427001953125,0.65874183177948,-0.8263479471206665,0.20181460678577423
1700822864517426000,2.829426025390625,0.5744423866271973,-0.5655084848403931,0.0038942659739404917
1700822864527535000,2.83953515625,0.5408447980880737,-0.4720461070537567,-0.18913915753364563
1700822864537292000,2.8492919921875,0.6086508631706238,-0.5868887901306152,-0.2709950804710388
1700822864547506000,2.859505859375,0.5994879007339478,-0.9326385259628296,-0.3467423915863037
1700822864557527000,2.869527099609375,0.467540979385376,-1.0761919021606445,-0.5971971154212952
1700822864567465000,2.87946484375,0.3691916763782501,-0.8287914395332336,-0.8293259143829346
1700822864577642000,2.88964208984375,0.23663392663002014,-0.5123631954193115,-0.9331730008125305
1700822864587315000,2.89931494140625,0.14133894443511963,-0.30833423137664795,-0.9056841135025024
1700822864597267000,2.909266845703125,0.12851077318191528,-0.2154827117919922,-0.8171086311340332
1700822864607236000,2.919236083984375,0.10835222154855728,-0.18249599635601044,-0.595975399017334
1700822864617236000,2.929236083984375,0.15355625748634338,-0.2710714638233185,-0.401720255613327
1700822864627211000,2.9392109375,0.3502548635005951,-0.5844452977180481,-0.4218788146972656
1700822864637362000,2.94936181640625,0.5506186485290527,-0.9363036751747131,-0.5471062064170837
1700822864647106000,2.95910595703125,0.5854379534721375,-1.2661709785461426,-0.7016550898551941
1700822864657549000,2.969549072265625,0.5652794241905212,-1.4066699743270874,-0.777402400970459
1700822864667251000,2.9792509765625,0.5115233063697815,-1.0071641206741333,-0.6118578910827637
1700822864677402000,2.989402099609375,0.3612504303455353,-0.2961169183254242,-0.28443413972854614
1700822864687953000,2.999952880859375,0.22563834488391876,0.5352706909179688,0.10102184116840363
1700822864697308000,3.009307861328125,0.15966489911079407,1.0276280641555786,0.3038291037082672
1700822864707558000,3.019557861328125,0.1321759670972824,0.9311113357543945,0.20914499461650848
1700822864717139000,3.029138916015625,0.18043431639671326,0.5212207436561584,0.16943874955177307
1700822864727307000,3.03930712890625,0.1682170182466507,0.25366178154945374,0.25129470229148865
1700822864737247000,3.0492470703125,0.18471038341522217,0.06612616032361984,0.21647536754608154
1700822864747081000,3.0590810546875,0.3136029541492462,-0.1537853181362152,0.11629346758127213
1700822864757259000,3.069259033203125,0.40889793634414673,-0.2496911734342575,0.1731039434671402
1700822864767177000,3.079177001953125,0.2836705446243286,-0.05543602257966995,0.2280818074941635
1700822864777409000,3.089408935546875,0.3203224539756775,0.3404046595096588,0.19937114417552948
1700822864787307000,3.09930712890625,0.38385245203971863,0.9292787313461304,-0.01687515154480934
1700822864797380000,3.109380126953125,0.29710957407951355,1.3348932266235352,-0.08773551881313324
1700822864807384000,3.119384033203125,0.25740334391593933,1.3495540618896484,-0.05597052723169327
1700822864817172000,3.129171875,0.2879466116428375,0.8455902338027954,-0.024816401302814484
1700822864827386000,3.13938623046875,0.3307071626186371,0.2713768780231476,-0.007712173741310835
1700822864837225000,3.149224853515625,0.32276591658592224,-0.025503624230623245,0.0918588638305664
1700822864847131000,3.159130859375,0.2629011273384094,0.03130684420466423,0.1786017268896103
1700822864857225000,3.169224853515625,0.2036471962928772,0.25366178154945374,0.16516269743442535
1700822864867553000,3.179552978515625,0.24029912054538727,0.3703370690345764,0.132786825299263
1700822864877275000,3.18927490234375,0.28733575344085693,0.34162637591362,0.14561499655246735
1700822864887387000,3.199386962890625,0.2738966941833496,0.2506074607372284,0.19998200237751007
1700822864897380000,3.209380126953125,0.20425806939601898,0.21884247660636902,0.2598468065261841
1700822864907090000,3.21908984375,0.11690433323383331,0.19379699230194092,0.25251641869544983
1700822864917357000,3.229357177734375,0.072311170399189,0.11255192011594772,0.2244166135787964
1700822864927331000,3.2393310546875,0.06925684958696365,0.03680463135242462,0.2341904640197754
1700822864937366000,3.249365966796875,0.07780896127223969,0.10644327104091644,0.3136029541492462
1700822864947388000,3.259387939453125,0.072311170399189,0.33918291330337524,0.4101196527481079
1700822864957915000,3.269914794921875,0.024663684889674187,0.6238461136817932,0.4864778220653534
1700822864967337000,3.2793369140625,0.008170322515070438,0.8694139719009399,0.6343072056770325
1700822864978081000,3.2900810546875,0.060093868523836136,1.052673578262329,0.8536078333854675
1700822864987457000,3.29945703125,0.16577355563640594,1.1015427112579346,1.0002155303955078
1700822864997542000,3.3095419921875,0.2592359483242035,0.8859072923660278,0.9238573312759399
1700822865007504000,3.31950390625,0.30627256631851196,0.46563202142715454,0.7509824633598328
1700822865017312000,3.32931201171875,0.2989421784877777,0.07651086896657944,0.648967981338501
1700822865027914000,3.3399140625,0.20120373368263245,-0.10674870014190674,0.6440810561180115
1700822865037427000,3.349427001953125,0.02038762718439102,-0.18677204847335815,0.6520223021507263
1700822865047782000,3.359781982421875,-0.6876052021980286,-0.6125451326370239,0.7827474474906921
1700822865057826000,3.369825927734375,-1.3436744213104248,-2.9991955757141113,1.8102227449417114
1700822865067150000,3.379150146484375,-2.050445556640625,-2.9991955757141113,2.4039838314056396
1700822865077132000,3.389132080078125,-2.2831852436065674,-4.749935626983643,2.4320836067199707
1700822865087364000,3.399364013671875,-1.005255103111267,-3.8562395572662354,1.6104698181152344
1700822865097991000,3.409990966796875,0.9886090159416199,-2.1983513832092285,0.5793293118476868
1700822865108220000,3.420219970703125,1.873141884803772,-0.15683965384960175,0.16943874955177307
1700822865117357000,3.429357177734375,2.003256320953369,0.2695443034172058,-0.08529205620288849
1700822865127467000,3.439467041015625,2.033188581466675,-0.6656904220581055,-0.35529449582099915
1700822865137340000,3.44933984375,2.00631046295166,-1.31748366355896,-0.60513836145401
1700822865147444000,3.45944384765625,1.805946707725525,-1.4274393320083618,-0.7462482452392578
1700822865158196000,3.470196044921875,1.4437036514282227,-1.2551753520965576,-0.7254788279533386
1700822865168005000,3.480005126953125,1.0258718729019165,-1.1116219758987427,-0.5978080034255981
1700822865177152000,3.489152099609375,0.6501896977424622,-1.108567714691162,-0.4218788146972656
1700822865187162000,3.499162109375,0.3655264973640442,-1.1562151908874512,-0.2508365511894226
1700822865197068000,3.509068115234375,0.18165604770183563,-1.1183415651321411,-0.130496084690094
1700822865207077000,3.5190771484375,0.06864598393440247,-0.9601274728775024,-0.10056369006633759
1700822865217041000,3.529041015625,-0.010155634954571724,-0.7212791442871094,-0.1757001131772995
1700822865227260000,3.539260009765625,-0.0541379339993,-0.30405816435813904,-0.3736204504966736
1700822865237249000,3.5492490234375,-0.10911580175161362,0.06551529467105865,-0.5263367891311646
1700822865247305000,3.559304931640625,-0.14454598724842072,0.19868391752243042,-0.3882812261581421
1700822865257214000,3.5692138671875,-0.08101600408554077,0.24816401302814484,-0.08284860104322433
1700822865267171000,3.579171142578125,0.03565925732254982,0.22128593921661377,0.18898643553256989
1700822865277221000,3.58922119140625,0.12851077318191528,0.19807305932044983,0.28244882822036743
1700822865287259000,3.5992587890625,0.132786825299263,0.20662516355514526,0.19448421895503998
1700822865297261000,3.609260986328125,0.06925684958696365,0.2054034322500229,0.028939740732312202
1700822865307267000,3.61926708984375,-0.015042556449770927,0.1498146951198578,-0.09384417533874512
1700822865317312000,3.62931201171875,-0.05597052723169327,0.05390885844826698,-0.10606148093938828
1700822865327426000,3.639426025390625,-0.05047274008393288,-0.03222314268350601,-0.030314188450574875
1700822865337528000,3.649528076171875,-0.011988230049610138,-0.09758572280406952,0.06498079001903534
1700822865347572000,3.659572021484375,0.039324451237916946,-0.11774427443742752,0.11629346758127213
1700822865357433000,3.66943310546875,0.07108944654464722,-0.10430523753166199,0.09613491594791412
1700822865367415000,3.6794150390625,0.0771980956196785,-0.08048149943351746,0.03199406713247299
1700822865377818000,3.689818115234375,0.022220224142074585,-0.10980302840471268,-0.053527068346738815
1700822865388176000,3.70017578125,-0.02054034359753132,-0.1690569519996643,-0.0290924571454525
1700822865397348000,3.70934814453125,-0.06207918003201485,-0.20754146575927734,0.016111571341753006
1700822865407432000,3.719431884765625,-0.08895725011825562,-0.20876319706439972,0.057650405913591385
1700822865417124000,3.7291240234375,-0.08895725011825562,-0.1696678251028061,0.07964155822992325
1700822865427521000,3.73952099609375,-0.06879869848489761,-0.10430523753166199,0.07108944654464722
1700822865437280000,3.749280029296875,-0.04375322163105011,-0.03649919852614403,0.04604396969079971
1700822865447567000,3.759567138671875,-0.030925052240490913,0.003817907767370343,0.025274548679590225
1700822865457725000,3.769724853515625,-0.04130976274609566,0.022143865004181862,0.010002918541431427
1700822865467340000,3.779340087890625,-0.07002042979001999,0.04230241850018501,0.01061378326267004
1700822865477321000,3.789321044921875,-0.11155926436185837,0.06185010448098183,0.03321579843759537
1700822865487932000,3.799931884765625,-0.1408807933330536,0.09728029370307922,0.06803511828184128
1700822865497427000,3.809427001953125,-0.15431983768939972,0.15042556822299957,0.09369145333766937
1700822865507410000,3.819409912109375,-0.1506546437740326,0.2194533348083496,0.10041097551584244
1700822865517317000,3.829317138671875,-0.1298852264881134,0.28237244486808777,0.08575020730495453
1700822865527464000,3.8394638671875,-0.10911580175161362,0.2854267954826355,0.0466548316180706
1700822865537756000,3.849755859375,-0.09078984707593918,0.22617286443710327,-0.00038179077091626823
1700822865547277000,3.859277099609375,-0.07185302674770355,0.1437060534954071,-0.038866300135850906
1700822865557899000,3.86989892578125,-0.06513350456953049,0.06062837690114975,-0.06818783283233643
1700822865567290000,3.8792900390625,-0.07246389240026474,-0.010231993161141872,-0.08101600408554077
1700822865577314000,3.88931396484375,-0.07307475805282593,-0.05543602257966995,-0.06635523587465286
1700822865587154000,3.89915380859375,-0.060246583074331284,-0.05543602257966995,-0.03825543448328972
1700822865597531000,3.90953076171875,-0.02848159149289131,-0.03344487398862839,-0.010155634954571724
1700822865607433000,3.919432861328125,0.011224648915231228,-0.019394971430301666,0.0014508049935102463
1700822865618124000,3.9301240234375,0.030772335827350616,-0.0022907445672899485,-0.018707748502492905
1700822865627287000,3.939287109375,0.022220224142074585,0.012980886735022068,-0.05230533704161644
1700822865637352000,3.94935205078125,-0.006490443367511034,0.026419922709465027,-0.07307475805282593
1700822865647635000,3.959635009765625,-0.04375322163105011,0.03130684420466423,-0.06635523587465286
1700822865657201000,3.969200927734375,-0.06757696717977524,0.030085112899541855,-0.03275764733552933
1700822865667468000,3.979468017578125,-0.06757696717977524,0.035582900047302246,0.006337726954370737
1700822865677274000,3.989274169921875,-0.04680754989385605,0.03375030308961868,0.033826664090156555
1700822865687260000,3.999260009765625,0.027718011289834976,0.04230241850018501,-0.02054034359753132
1700822865697301000,4.009301025390625,0.11079568415880203,-0.004734205547720194,-0.14637859165668488
1700822865707422000,4.019421875,0.18226692080497742,-0.07620543986558914,-0.015653422102332115
1700822865717379000,4.029379150390625,0.16516269743442535,0.06001751124858856,0.018555032089352608
1700822865727476000,4.03947607421875,0.09002626687288284,0.12049316614866257,0.01366810966283083
1700822865737313000,4.04931298828125,-0.030925052240490913,0.17852537333965302,0.06864598393440247
1700822865747327000,4.059326904296875,-0.1451568603515625,0.3318525552749634,0.14072808623313904
1700822865757474000,4.06947412109375,-0.2007455974817276,0.49495357275009155,0.14683672785758972
1700822865767356000,4.07935595703125,-0.2007455974817276,0.6238461136817932,0.0264962799847126
1700822865777458000,4.0894580078125,-0.14210252463817596,0.6470590233802795,-0.2471713423728943
1700822865787345000,4.099344970703125,-0.010155634954571724,0.5383250117301941,-0.6039166450500488
1700822865797306000,4.10930615234375,0.12484558671712875,0.4106541574001312,-0.9594402313232422
1700822865807428000,4.119427978515625,0.10102184116840363,0.27320948243141174,-1.232496976852417
1700822865817464000,4.129464111328125,-0.10545061528682709,0.11988230794668198,-1.3424527645111084
1700822865827466000,4.139466064453125,-0.38522690534591675,-0.014508049935102463,-1.2379947900772095
1700822865837238000,4.149238037109375,-0.5929210782051086,-0.17516560852527618,-0.928286075592041
1700822865847123000,4.159123046875,-0.6485098004341125,-0.2808452844619751,-0.5226715803146362
1700822865857732000,4.169732177734375,-0.5910884737968445,-0.29306259751319885,-0.21174116432666779
1700822865867347000,4.179346923828125,-0.4744132161140442,-0.24236078560352325,-0.11155926436185837
1700822865877250000,4.18925,-0.301538348197937,-0.1849394589662552,-0.20868684351444244
1700822865887406000,4.199406005859375,-0.06330090761184692,-0.08475755155086517,-0.3931681513786316
1700822865897420000,4.209419921875,0.16577355563640594,0.08078692853450775,-0.5758168697357178
1700822865907397000,4.219397216796875,0.3410918712615967,0.24755313992500305,-0.7163158655166626
1700822865917323000,4.229322998046875,0.4864778220653534,0.3978259861469269,-0.7712937593460083
1700822865927385000,4.239385009765625,0.5927683711051941,0.49495357275009155,-0.6912704110145569
1700822865937448000,4.249447998046875,0.6837872862815857,0.4925101101398468,-0.40538543462753296
1700822865947314000,4.25931396484375,0.7821365594863892,0.4735732674598694,0.05520694702863693
1700822865957763000,4.26976318359375,0.810236394405365,0.6116288304328918,0.505414605140686
1700822865967222000,4.279221923828125,0.716163158416748,0.6171266436576843,0.8261188864707947
1700822865977269000,4.28926904296875,0.49808424711227417,0.2909245789051056,1.0142654180526733
1700822865987327000,4.299326904296875,0.16638441383838654,0.0685696229338646,1.1272754669189453
1700822865997232000,4.309232177734375,-1.0577895641326904,-0.0328340083360672,1.0881800651550293
1700822866007349000,4.319348876953125,-1.5654186010360718,-0.14034628868103027,1.0839040279388428
1700822866017762000,4.329761962890625,-1.9313268661499023,-0.10491610318422318,1.0576368570327759
1700822866027445000,4.339445068359375,-1.9563722610473633,-0.031001411378383636,1.077795386314392
1700822866038322000,4.350322021484375,-1.5360970497131348,0.20112738013267517,1.1682034730911255
1700822866047395000,4.35939501953125,-0.8763625621795654,0.6433938145637512,1.2610549926757812
1700822866057326000,4.369326171875,-0.4377613067626953,0.897513747215271,1.2060770988464355
1700822866067337000,4.3793369140625,-0.5904776453971863,0.6470590233802795,0.8768206834793091
1700822866077478000,4.389477783203125,-0.996703028678894,0.2548835277557373,0.4302782118320465
1700822866087368000,4.399367919921875,-1.1365911960601807,0.012980886735022068,0.06925684958696365
1700822866097459000,4.409458984375,-0.9313403964042664,-0.014508049935102463,-0.1799761801958084
1700822866107472000,4.419471923828125,-0.595364511013031,0.0074830991216003895,-0.36506834626197815
1700822866117436000,4.429435791015625,-0.31436651945114136,-0.08292495459318161,-0.5697082281112671
1700822866127518000,4.43951806640625,-0.19708040356636047,-0.2741257846355438,-0.8781951665878296
1700822866137452000,4.4494521484375,-0.19769126176834106,-0.5881105065345764,-1.2538772821426392
1700822866147382000,4.459382080078125,-0.2978731691837311,-0.9198103547096252,-1.6094008684158325
1700822866157405000,4.469405029296875,-0.49273917078971863,-1.1036807298660278,-1.9032269716262817
1700822866167752000,4.479751953125,-0.7181484699249268,-1.1885910034179688,-2.089540958404541
1700822866177283000,4.489282958984375,-0.90018630027771,-1.3400856256484985,-2.1414644718170166
1700822866187463000,4.499462890625,-0.928896963596344,-1.4744759798049927,-1.972254753112793
1700822866197754000,4.509754150390625,-0.787176251411438,-1.467145562171936,-1.547703504562378
1700822866207418000,4.519418212890625,-0.5379431843757629,-1.2014192342758179,-0.9160687923431396
1700822866217466000,4.529466064453125,-0.3785073757171631,-0.4311181604862213,-0.2709950804710388
1700822866227373000,4.539373046875,-0.3461315333843231,0.574976921081543,0.19448421895503998
1700822866237229000,4.54922900390625,-0.33513593673706055,1.3336715698242188,0.40706533193588257
1700822866247094000,4.559093994140625,-0.2612212598323822,1.6061174869537354,0.39851322770118713
1700822866257248000,4.569248046875,-0.17081318795681,1.4998269081115723,0.18532124161720276
1700822866267080000,4.579079833984375,-0.15370896458625793,1.0538952350616455,-0.2264019250869751
1700822866277082000,4.58908203125,-0.2471713423728943,0.5077817440032959,-0.718759298324585
1700822866287106000,4.59910595703125,-0.3314707577228546,0.062460970133543015,-1.026024580001831
1700822866297094000,4.609093994140625,-0.363235741853714,-0.020005837082862854,-1.0156397819519043
1700822866307164000,4.619163818359375,-0.4939609169960022,-0.04199698567390442,-0.5073999166488647
1700822866317247000,4.6292470703125,-0.6992116570472717,0.06734789162874222,-0.35407277941703796
1700822866327348000,4.639347900390625,-0.9734901189804077,0.02580905705690384,-0.31925344467163086
1700822866337228000,4.64922802734375,-1.308244228363037,-0.20570887625217438,-0.3791182339191437
1700822866347119000,4.659119140625,-1.5312100648880005,-0.699288010597229,-0.30886873602867126
1700822866357504000,4.66950390625,-1.310687780380249,-1.0193814039230347,0.20975585281848907
1700822866367265000,4.67926513671875,-1.080391526222229,-0.21365012228488922,0.6214790344238281
1700822866377274000,4.689274169921875,-0.90018630027771,0.11071932315826416,0.8462774157524109
1700822866387239000,4.699239013671875,-0.6381251215934753,-0.2551889419555664,0.943405032157898
1700822866397325000,4.709324951171875,-0.28382325172424316,-0.49586987495422363,1.0448086261749268
1700822866407380000,4.7193798828125,0.08636107295751572,-0.3608686327934265,1.2402855157852173
1700822866417238000,4.729238037109375,0.3258202373981476,-0.16294831037521362,1.378951907157898
1700822866427302000,4.739302001953125,0.3191007375717163,-0.10797043144702911,1.2641092538833618
1700822866437470000,4.749469970703125,0.14989106357097626,-0.18188512325286865,0.9269116520881653
1700822866447223000,4.75922314453125,0.005115996580570936,-0.2612976133823395,0.5927683711051941
1700822866457402000,4.769402099609375,-0.05780312418937683,-0.2710714638233185,0.29710957407951355
1700822866467388000,4.779387939453125,-0.07185302674770355,-0.3675881624221802,0.07170030474662781
1700822866477267000,4.789266845703125,-0.09873109310865402,-0.47448956966400146,-0.03520110994577408
1700822866487149000,4.799149169921875,-0.140269935131073,-0.5710062980651855,0.000839939690195024
1700822866497188000,4.80918798828125,-0.22395847737789154,-0.5447390675544739,0.02038762718439102
1700822866507482000,4.819482177734375,-0.32414036989212036,-0.527634859085083,-0.14637859165668488
1700822866517215000,4.829215087890625,-0.3937790095806122,-0.6632469296455383,-0.4279874563217163
1700822866527276000,4.839276123046875,-0.5501605272293091,-0.7035640478134155,-0.7719045877456665
1700822866537014000,4.849013916015625,-0.7444156408309937,-0.6284276247024536,-1.0797806978225708
1700822866547027000,4.85902685546875,-0.7890087962150574,-0.4769330322742462,-1.223944902420044
1700822866557250000,4.86925,-0.7267005443572998,-0.21242839097976685,-1.355280876159668
1700822866567183000,4.87918310546875,-0.6857725977897644,-0.10002918541431427,-1.5134949684143066
1700822866577277000,4.88927685546875,-0.7193701863288879,-0.14584407210350037,-1.6576591730117798
1700822866587288000,4.8992880859375,-0.815276026725769,-0.21609358489513397,-1.8030451536178589
1700822866597194000,4.909194091796875,-1.0693960189819336,-0.16783522069454193,-1.994246006011963
1700822866607230000,4.91922998046875,-1.3589460849761963,-0.19349156320095062,-2.1274144649505615
1700822866617681000,4.929680908203125,-1.4163674116134644,-0.20143280923366547,-1.917887806892395
1700822866627417000,4.9394169921875,-1.1530845165252686,-0.2515237629413605,-1.376050353050232
1700822866637310000,4.94931005859375,-0.8342128396034241,-0.04993823543190956,-0.7169266939163208
1700822866647216000,4.959216064453125,-0.6515641212463379,0.33307427167892456,-0.2868776023387909
1700822866657437000,4.96943701171875,-0.5605452060699463,0.4014911949634552,0.00022907447419129312
1700822866667334000,4.979333984375,-0.5159520506858826,0.36361753940582275,0.1786017268896103
1700822866677200000,4.989199951171875,-0.5635995268821716,0.35384368896484375,0.19692768156528473
1700822866687430000,4.999429931640625,-0.6747770309448242,0.2695443034172058,0.14866933226585388
1700822866697227000,5.00922705078125,-0.7969500422477722,0.23105977475643158,-0.03275764733552933
1700822866708255000,5.0202548828125,-0.8458192944526672,0.19379699230194092,-0.3119230568408966
1700822866717488000,5.029488037109375,-0.785954475402832,0.13209961354732513,-0.5128977298736572
1700822866727431000,5.039430908203125,-0.605749249458313,0.06429356336593628,-0.4176027476787567
1700822866737265000,5.049264892578125,-0.4395939111709595,0.13637566566467285,-0.17631098628044128
1700822866747274000,5.05927392578125,-0.4169918894767761,0.23900102078914642,0.0032834007870405912
1700822866757395000,5.06939501953125,-0.5513822436332703,0.289702832698822,0.07047858089208603
1700822866767379000,5.07937890625,-0.7083746194839478,0.3208569586277008,0.18959729373455048
1700822866777391000,5.08939111328125,-0.8103891015052795,0.4014911949634552,0.3148246705532074
1700822866787299000,5.099299072265625,-0.8470410108566284,0.5328271985054016,0.2683989107608795
1700822866797335000,5.1093349609375,-0.7804567217826843,0.5664247870445251,0.11934779584407806
1700822866807378000,5.1193779296875,-0.6711118221282959,0.5755877494812012,0.0020616701804101467
1700822866817091000,5.129091064453125,-0.586201548576355,0.6849326491355896,-0.12133310735225677
1700822866827270000,5.139269775390625,-0.5324454307556152,0.7478517889976501,-0.2465604841709137
1700822866837232000,5.149232177734375,-0.5837581157684326,0.7588473558425903,-0.4591415822505951
1700822866847220000,5.159219970703125,-0.748691737651825,0.6611089110374451,-0.6527858972549438
1700822866857079000,5.1690791015625,-0.9624945521354675,0.4717406928539276,-0.7664068341255188
1700822866867236000,5.179236083984375,-1.1372020244598389,0.2499966025352478,-0.7877870798110962
1700822866877192000,5.18919189453125,-1.2166144847869873,0.17119498550891876,-0.7554112076759338
1700822866887267000,5.19926708984375,-1.2379947900772095,0.14004085958003998,-0.6417902708053589
1700822866897197000,5.209197021484375,-1.2569315433502197,0.16569720208644867,-0.5599343776702881
1700822866907188000,5.21918798828125,-1.2929726839065552,0.17791450023651123,-0.5489387512207031
1700822866917166000,5.229166015625,-1.3210724592208862,0.0630718395113945,-0.6008623242378235
1700822866927053000,5.239052978515625,-1.345507025718689,0.2047925740480423,-0.7596873044967651
1700822866937182000,5.249181884765625,-1.2318861484527588,0.3061962127685547,-0.7798458337783813
1700822866947309000,5.25930908203125,-1.034576654434204,0.027641652151942253,-0.6387359499931335
1700822866957224000,5.269223876953125,-0.8195520639419556,-0.08720101416110992,-0.5202280879020691
1700822866967173000,5.279173095703125,-0.6546184420585632,-0.04260785132646561,-0.4835762083530426
1700822866977165000,5.2891650390625,-0.576427698135376,0.12232576310634613,-0.5483279228210449
1700822866987288000,5.2992880859375,-0.6143013834953308,0.17302757501602173,-0.4933500289916992
1700822866997182000,5.309181884765625,-0.7896196842193604,0.09239336848258972,-0.32047519087791443
1700822867007279000,5.319279052734375,-1.0871111154556274,0.020311269909143448,-0.25328001379966736
1700822867017186000,5.32918603515625,-1.3913218975067139,-0.13607023656368256,-0.22701279819011688
1700822867027177000,5.339177001953125,-1.6393332481384277,-0.22892175614833832,-0.3271946907043457
1700822867037209000,5.349208984375,-1.7254652976989746,-0.30344730615615845,-0.6020840406417847
1700822867047096000,5.359095947265625,-1.5996270179748535,-0.4836525619029999,-0.958218514919281
1700822867057182000,5.369181884765625,-1.2770901918411255,-0.6663012504577637,-1.3363441228866577
1700822867067354000,5.37935400390625,-0.8678104281425476,-0.7890852093696594,-1.7346282005310059
1700822867077511000,5.389510986328125,-0.5043455958366394,-0.8807149529457092,-2.066938877105713
1700822867087354000,5.39935400390625,-0.24961480498313904,-0.9845620393753052,-2.2019400596618652
1700822867097416000,5.409416015625,-0.0895681157708168,-0.8587238192558289,-2.0803780555725098
1700822867107343000,5.419343017578125,0.00022907447419129312,-0.6913467645645142,-1.662546157836914
1700822867117259000,5.429259033203125,0.07658722996711731,-0.6217080950737,-0.9973138570785522
1700822867127811000,5.43981103515625,0.14011721312999725,-0.5410739183425903,-0.3259729743003845
1700822867137930000,5.449929931640625,0.15355625748634338,-0.39935314655303955,0.13523028790950775
1700822867147266000,5.45926611328125,0.17127133905887604,-0.26251932978630066,0.30627256631851196
1700822867157350000,5.469349853515625,0.24090997874736786,-0.08903361111879349,0.33253976702690125
1700822867167329000,5.4793291015625,0.33315062522888184,-0.02977968007326126,0.36674821376800537
1700822867177397000,5.48939697265625,0.4192826449871063,-0.0010690141934901476,0.3551417887210846
1700822867187525000,5.499525146484375,0.45471280813217163,0.04230241850018501,0.2903900742530823
1700822867197312000,5.50931201171875,0.4266130030155182,0.06001751124858856,0.24579690396785736
1700822867207460000,5.519460205078125,0.42722389101982117,0.10461067408323288,0.18532124161720276
1700822867217350000,5.529349853515625,0.5121341347694397,0.26343563199043274,0.09552405029535294
1700822867227432000,5.539431884765625,0.6697373986244202,0.4075998365879059,0.11140654981136322
1700822867237336000,5.549336181640625,1.1956923007965088,0.5896376967430115,0.2238057553768158
1700822867247308000,5.55930810546875,1.5249487161636353,0.7136433124542236,0.12362385541200638
1700822867257461000,5.5694609375,1.8487073183059692,0.8315402865409851,0.0038942659739404917
1700822867267313000,5.57931298828125,2.1999547481536865,0.917061448097229,-0.018707748502492905
1700822867278000000,5.590000244140625,2.6513843536376953,0.868803083896637,0.152334526181221
1700822867287468000,5.599468017578125,3.11380934715271,0.5487096905708313,0.4822017550468445
1700822867297426000,5.609426025390625,3.504762887954712,0.005039638374000788,0.9146943688392639
1700822867307189000,5.61918896484375,3.8028652667999268,-0.5606215596199036,1.409495234489441
1700822867317118000,5.629117919921875,3.937255620956421,-0.8135197758674622,1.8035032749176025
1700822867327108000,5.639108154296875,3.8560104370117188,-0.4384485185146332,1.6966018676757812
1700822867337090000,5.649090087890625,3.608610153198242,0.23228150606155396,1.2384529113769531
1700822867347047000,5.659046875,3.173063039779663,0.5713117122650146,0.9153051972389221
1700822867357074000,5.669073974609375,2.5683064460754395,0.6171266436576843,0.7705301642417908
1700822867367077000,5.6790771484375,1.9226219654083252,0.5511531829833984,0.6935611367225647
1700822867377089000,5.689089111328125,1.3477977514266968,0.35323283076286316,0.6550766229629517
1700822867387057000,5.699056884765625,0.9067531228065491,0.05513058975338936,0.6367506384849548
1700822867397141000,5.70914111328125,0.5884923338890076,-0.25702154636383057,0.5811619162559509
1700822867407358000,5.71935791015625,0.36186128854751587,-0.43417248129844666,0.4754822254180908
1700822867417232000,5.72923193359375,0.20486892759799957,-0.2790127098560333,0.23663392663002014
1700822867427091000,5.739091064453125,0.15416711568832397,0.050243668258190155,-0.10361801832914352
1700822867437235000,5.74923486328125,0.2238057553768158,0.14065171778202057,-0.2508365511894226
1700822867447322000,5.759322021484375,0.3343723714351654,0.05207626149058342,-0.15431983768939972
1700822867457437000,5.76943701171875,0.39729148149490356,0.05451972410082817,-0.05047274008393288
1700822867467399000,5.77939892578125,0.3765220642089844,0.12476922571659088,-0.018096882849931717
1700822867477306000,5.78930615234375,0.2934443950653076,0.07590000331401825,0.005115996580570936
1700822867487233000,5.79923291015625,0.18104518949985504,-0.09208793938159943,0.016722436994314194
1700822867497437000,5.80943701171875,0.102243572473526,-0.2741257846355438,0.142560675740242
1700822867507283000,5.819282958984375,0.07170030474662781,-0.4531092941761017,0.41317397356033325
1700822867517659000,5.829658935546875,-0.13416127860546112,-0.35475999116897583,0.35758525133132935
1700822867527402000,5.839402099609375,-0.5996406078338623,-0.014508049935102463,-0.3216969072818756
1700822867537412000,5.849412109375,-1.1145999431610107,0.37827831506729126,-1.3436744213104248
1700822867547329000,5.8593291015625,-2.2245421409606934,0.7295258045196533,-2.338163137435913
1700822867557422000,5.869422119140625,-2.2447006702423096,0.6097962260246277,-1.547703504562378
1700822867567245000,5.8792451171875,-1.5507577657699585,0.5181664228439331,-0.2557234764099121
1700822867577265000,5.889264892578125,-0.46586111187934875,0.4662429094314575,0.4150065779685974
1700822867587342000,5.899342041015625,0.34353533387184143,0.32818734645843506,0.2036471962928772
1700822867597292000,5.9092919921875,0.4571562707424164,0.027641652151942253,-0.11278099566698074
1700822867607220000,5.919219970703125,-0.04253149405121803,-0.42012256383895874,-0.26427558064460754
1700822867617295000,5.929295166015625,-0.5006804466247559,-0.6302602291107178,-0.3107013404369354
1700822867627342000,5.939342041015625,-0.5324454307556152,-0.38835757970809937,-0.17325665056705475
1700822867637285000,5.94928515625,-0.31436651945114136,-0.12507465481758118,0.030772335827350616
1700822867647206000,5.959205810546875,-0.1506546437740326,-0.001679879380390048,0.21158844232559204
1700822867657227000,5.96922705078125,-0.05902485549449921,-0.00045814894838258624,0.34353533387184143
1700822867667372000,5.9793720703125,-0.007712173741310835,0.038026362657547,0.415617436170578
1700822867677265000,5.989264892578125,-0.18975001573562622,0.13820825517177582,0.5090798139572144
1700822867687370000,5.999369873046875,-0.3992767930030823,0.15531249344348907,0.506025493144989
1700822867697486000,6.009486083984375,-0.5391649603843689,0.05696318298578262,0.44982588291168213
1700822867707380000,6.0193798828125,-0.5568800568580627,-0.060322944074869156,0.42233696579933167
1700822867717510000,6.029510009765625,-0.46219590306282043,-0.1281289905309677,0.425391286611557
1700822867727297000,6.039297119140625,-0.24961480498313904,-0.06276640295982361,0.43883031606674194
1700822867737377000,6.049376953125,0.014278975315392017,0.07773260027170181,0.444938987493515
1700822867747263000,6.059262939453125,0.2653445899486542,0.2402227520942688,0.4626540541648865
1700822867757515000,6.069514892578125,0.43821945786476135,0.3831652104854584,0.45349109172821045
1700822867767325000,6.079324951171875,0.33803755044937134,0.2799290120601654,0.2800053656101227
1700822867777149000,6.08914892578125,0.01061378326267004,-0.03222314268350601,-0.0443640872836113
1700822867787379000,6.09937890625,-0.1201113760471344,0.035582900047302246,-0.19341520965099335
1700822867797071000,6.109071044921875,-0.07246389240026474,0.31902438402175903,-0.17325665056705475
1700822867807207000,6.11920703125,-0.005268712528049946,0.49067750573158264,-0.14637859165668488
1700822867817397000,6.12939697265625,0.08086328953504562,0.5224425196647644,-0.15248723328113556
1700822867827550000,6.139550048828125,0.18654297292232513,0.5102251768112183,-0.16836974024772644
1700822867837400000,6.149400146484375,0.24640776216983795,0.3874412775039673,-0.14210252463817596
1700822867847236000,6.159236083984375,0.20547980070114136,0.16508632898330688,-0.05719225853681564
1700822867857396000,6.16939599609375,-0.1860848218202591,-0.22708915174007416,0.07475463300943375
1700822867867550000,6.179550048828125,-0.3131448030471802,-0.28206703066825867,0.102243572473526
1700822867877142000,6.18914208984375,-0.37117698788642883,-0.2900082767009735,0.12912164628505707
1700822867887411000,6.199410888671875,-0.373009592294693,-0.2704605758190155,0.15661057829856873
1700822867897152000,6.209152099609375,-0.25450173020362854,-0.20204368233680725,0.19570595026016235
1700822867907436000,6.21943603515625,-0.08895725011825562,-0.12079860270023346,0.20120373368263245
1700822867917175000,6.229175048828125,-0.03275764733552933,-0.10308351367712021,0.14622586965560913
1700822867927284000,6.239283935546875,-0.13171781599521637,-0.2246456891298294,0.006337726954370737
1700822867937843000,6.249843017578125,-0.40477457642555237,-0.48609602451324463,-0.14637859165668488
1700822867947242000,6.259241943359375,-0.6723335385322571,-0.7041749358177185,-0.24533875286579132
1700822867957259000,6.269259033203125,-0.7358635663986206,-0.812298059463501,-0.36140313744544983
1700822867967185000,6.279184814453125,-0.8989645838737488,-0.7652614116668701,-0.33452507853507996
1700822867977088000,6.289087890625,-0.9698249101638794,-0.6650795340538025,-0.2160172164440155
1700822867987252000,6.299251953125,-0.8745299577713013,-0.5300782918930054,-0.10056369006633759
1700822867998299000,6.310298828125,-0.8177194595336914,-0.446389764547348,0.0014508049935102463
1700822868007496000,6.319495849609375,-0.8873581290245056,-0.4983133375644684,0.1126282811164856
1700822868017481000,6.32948095703125,-1.1249847412109375,-0.6498079299926758,0.12973250448703766
1700822868027536000,6.339535888671875,-1.3797155618667603,-0.9094256162643433,0.028939740732312202
1700822868037737000,6.349737060546875,-1.3980414867401123,-1.1140655279159546,-0.13232868909835815
1700822868047479000,6.35947900390625,-1.1365911960601807,-1.305266261100769,-0.4683045744895935
1700822868057378000,6.3693779296875,-0.6656140685081482,-1.4494304656982422,-0.9343947768211365
1700822868067459000,6.379458984375,0.019776761531829834,-1.3504703044891357,-1.1634691953659058
1700822868077356000,6.38935595703125,0.6862307190895081,-1.0651962757110596,-1.1817951202392578
1700822868087604000,6.39960400390625,1.144379734992981,-0.7487680912017822,-1.1268173456192017
1700822868097153000,6.409153076171875,1.4681382179260254,-0.5618433356285095,-1.1139891147613525
1700822868107292000,6.4192919921875,1.6086372137069702,-0.5587889552116394,-1.340009331703186
1700822868117462000,6.4294619140625,1.6953800916671753,-0.6931793093681335,-1.6643787622451782
1700822868127180000,6.439179931640625,1.8975765705108643,-0.7463245987892151,-1.9142225980758667
1700822868137676000,6.449676025390625,2.1052706241607666,-0.9356928467750549,-2.0742692947387695
1700822868147185000,6.459184814453125,1.8261052370071411,-2.158034086227417,-1.9270508289337158
1700822868157320000,6.46931982421875,1.0069350004196167,-2.509892463684082,-1.423697829246521
1700822868167321000,6.479321044921875,-0.39988765120506287,0.22739458084106445,-0.22701279819011688
1700822868177099000,6.48909912109375,-0.20257818698883057,-0.13545936346054077,0.05398521572351456
1700822868187944000,6.49994384765625,0.04421137273311615,-0.5734497308731079,0.23235787451267242
1700822868197265000,6.509264892578125,0.102243572473526,-0.4738787114620209,0.20914499461650848
1700822868207381000,6.519381103515625,0.06559165567159653,-0.29184088110923767,0.223194882273674
1700822868217414000,6.529413818359375,0.0869719386100769,-0.2796235680580139,0.22075143456459045
1700822868227246000,6.53924609375,0.05581781268119812,-0.265573650598526,0.21158844232559204
1700822868237383000,6.5493828125,-0.10300715267658234,-0.10980302840471268,0.3191007375717163
1700822868247282000,6.559281982421875,-0.24289529025554657,0.08506298810243607,0.3600287139415741
1700822868257424000,6.569423828125,-0.27832546830177307,0.21762074530124664,0.3459787964820862
1700822868267523000,6.579523193359375,-0.21784982085227966,0.2664899528026581,0.4822017550468445
1700822868277415000,6.589414794921875,-0.2361757755279541,0.07406741380691528,0.6697373986244202
1700822868287672000,6.599672119140625,-0.2758820056915283,0.24205535650253296,0.7919104099273682
1700822868297425000,6.6094248046875,-0.3357468247413635,0.5328271985054016,0.8994227051734924
1700822868307456000,6.6194560546875,-0.401720255613327,0.6049093008041382,0.9825003743171692
1700822868317443000,6.629443115234375,-0.3986659348011017,0.6104071140289307,0.9513462781906128
1700822868327279000,6.639279052734375,-0.31986430287361145,0.6262896060943604,0.8841511011123657
1700822868337276000,6.64927587890625,-0.23006711900234222,0.6140722632408142,0.7766388058662415
1700822868347266000,6.65926611328125,-0.21907155215740204,0.5584835410118103,0.6471353769302368
1700822868357203000,6.669202880859375,-0.16470454633235931,0.6684392690658569,0.6269767880439758
1700822868367209000,6.679208984375,-0.11888964474201202,0.8181012868881226,0.48831039667129517
1700822868377235000,6.68923486328125,-0.23800836503505707,0.5371032953262329,0.34353533387184143
1700822868387073000,6.699072998046875,-0.5440518856048584,0.19562959671020508,0.4363868534564972
1700822868397239000,6.709239013671875,-0.7896196842193604,0.32940909266471863,0.5915466547012329
1700822868407295000,6.719294921875,-0.9514989852905273,0.5132794976234436,0.7473172545433044
1700822868417245000,6.729244873046875,-0.9893726110458374,0.5193881988525391,0.9537897109985352
1700822868427072000,6.739072021484375,-0.9203448295593262,0.36789360642433167,0.9397398233413696
1700822868437241000,6.749240966796875,-0.8739190697669983,0.22128593921661377,0.5322927236557007
1700822868447343000,6.759343017578125,-0.7053202986717224,0.03191770985722542,-0.0443640872836113
1700822868457220000,6.76922021484375,-0.30459266901016235,-0.12202033400535583,-0.5752059817314148
1700822868467228000,6.779227783203125,0.17676913738250732,-0.3400992155075073,-0.9661597609519958
1700822868477183000,6.789182861328125,1.2402855157852173,-0.3504839241504669,-1.0834459066390991
1700822868487828000,6.799827880859375,1.4492014646530151,-0.0731511116027832,-0.7126506567001343
1700822868497426000,6.809426025390625,1.305037260055542,0.07956519722938538,-0.3430771827697754
1700822868507352000,6.81935205078125,0.7754170894622803,0.03741549700498581,-0.051083605736494064
1700822868517379000,6.829379150390625,0.1975385546684265,0.023976460099220276,0.18715384602546692
1700822868527309000,6.83930908203125,-0.15615242719650269,0.17730364203453064,0.2781727612018585
1700822868538054000,6.850053955078125,-0.1549306958913803,0.44425174593925476,0.02099849283695221
1700822868547225000,6.85922509765625,0.018555032089352608,0.5676465034484863,-0.36934441328048706
1700822868557458000,6.8694580078125,0.14683672785758972,0.3776674270629883,-0.7071529030799866
1700822868567342000,6.879342041015625,0.2036471962928772,0.13515393435955048,-0.9026297330856323
1700822868577295000,6.889295166015625,0.27084237337112427,0.1333213448524475,-0.9472229480743408
1700822868588169000,6.9001689453125,0.4009566605091095,0.33735033869743347,-0.90018630027771
1700822868597836000,6.9098359375,0.496862530708313,0.49006664752960205,-0.7407504916191101
1700822868607333000,6.9193330078125,0.4864778220653534,0.6055201888084412,-0.4896848499774933
1700822868617864000,6.929864013671875,0.2885574698448181,0.7619016766548157,-0.42126795649528503
1700822868627285000,6.939284912109375,0.03810271993279457,0.8578075170516968,-0.5978080034255981
1700822868637420000,6.949419921875,-0.14210252463817596,0.9329439401626587,-0.6918812394142151
1700822868647171000,6.959171142578125,-0.31436651945114136,0.917672336101532,-0.633849024772644
1700822868657348000,6.96934814453125,-0.5263367891311646,0.7796167731285095,-0.5324454307556152
1700822868667108000,6.979108154296875,-0.6918812394142151,0.6269004344940186,-0.3742313086986542
1700822868677146000,6.98914599609375,-0.8006152510643005,0.3507893681526184,-0.1915826052427292
1700822868687281000,6.999281005859375,-0.8952993750572205,-0.0682641938328743,-0.06818783283233643
1700822868697319000,7.00931884765625,-0.6833291053771973,-0.35903605818748474,0.006337726954370737
1700822868707339000,7.019339111328125,-0.43043091893196106,-0.27840182185173035,0.03565925732254982
1700822868717371000,7.029370849609375,-0.6301838755607605,-0.1635591685771942,-0.07612907886505127
1700822868727757000,7.039757080078125,-0.938670814037323,-0.3211624026298523,-0.19830213487148285
1700822868737363000,7.049363037109375,-0.6228534579277039,-0.6357579827308655,-0.36140313744544983
1700822868747386000,7.05938623046875,0.02099849283695221,-0.7408268451690674,-0.6289620995521545
1700822868757515000,7.069514892578125,0.3044399619102478,-0.5001459121704102,-0.8323802351951599
1700822868767344000,7.07934423828125,0.09369145333766937,-0.2698497176170349,-0.7529677748680115
1700822868777255000,7.0892548828125,-0.43531784415245056,-0.22892175614833832,-0.4328743815422058
1700822868787270000,7.099269775390625,-1.3100768327713013,-0.2857322096824646,-0.09934195876121521
1700822868797313000,7.10931298828125,-1.0822241306304932,-0.5233588218688965,-0.038866300135850906
1700822868807487000,7.119487060546875,-0.7395287156105042,-0.6663012504577637,-0.004657847341150045
1700822868817487000,7.129487060546875,-0.2410627007484436,-0.688903272151947,-0.039477165788412094
1700822868827210000,7.1392099609375,-0.01748601719737053,-0.41340306401252747,-0.09201157838106155
1700822868837440000,7.14943994140625,-0.14821118116378784,-0.17760907113552094,-0.059635721147060394
1700822868848333000,7.1603330078125,-0.3326924741268158,0.016035212203860283,0.06986771523952484
1700822868857802000,7.169802001953125,-0.586201548576355,0.08567385375499725,0.1779908537864685
1700822868867435000,7.17943505859375,-0.9233991503715515,0.0019853119738399982,0.09918924421072006
1700822868877362000,7.18936181640625,-0.9453903436660767,-0.18555031716823578,-0.12683089077472687
1700822868887312000,7.199311767578125,-0.7401396036148071,-0.30894508957862854,-0.2514474093914032
1700822868897353000,7.20935302734375,-0.28504499793052673,-0.4213443100452423,-0.36079227924346924
1700822868908316000,7.22031591796875,0.0924697294831276,-0.4922046661376953,-0.4884631335735321
1700822868917441000,7.22944091796875,-0.09567677229642868,-0.4567744731903076,-0.48724138736724854
1700822868927401000,7.23940087890625,-0.2667190432548523,-0.38469240069389343,-0.43592870235443115
1700822868937162000,7.249161865234375,-0.24778221547603607,-0.34926220774650574,-0.41149410605430603
1700822868947276000,7.259276123046875,-0.24900394678115845,-0.34865134954452515,-0.4029420018196106
1700822868957129000,7.26912890625,-0.26366472244262695,-0.38347065448760986,-0.41027235984802246
1700822868967246000,7.27924609375,-0.28015807271003723,-0.4384485185146332,-0.38461601734161377
1700822868977272000,7.28927197265625,-0.29848402738571167,-0.4970915913581848,-0.3418554663658142
1700822868987309000,7.29930908203125,-0.33880114555358887,-0.5728389024734497,-0.3736204504966736
1700822868997407000,7.309406982421875,-0.3937790095806122,-0.7035640478134155,-0.4683045744895935
1700822869007309000,7.31930908203125,-0.4267657399177551,-0.7970264554023743,-0.5495496392250061
1700822869017389000,7.32938916015625,-0.40538543462753296,-0.8251262307167053,-0.5226715803146362
1700822869027254000,7.33925390625,-0.34429892897605896,-0.8135197758674622,-0.3943898677825928
1700822869037461000,7.3494609375,-0.31375566124916077,-0.8306240439414978,-0.2465604841709137
1700822869047288000,7.3592880859375,-0.3161991238594055,-0.821461021900177,-0.13904820382595062
1700822869057338000,7.369338134765625,-0.38583776354789734,-0.7677049040794373,-0.31986430287361145
1700822869067427000,7.379427001953125,-0.4945717751979828,-0.7622070908546448,-0.8714756369590759
1700822869077259000,7.389259033203125,-0.5397757887840271,-0.8367326855659485,-1.345507025718689
1700822869087172000,7.399172119140625,-0.5141194462776184,-0.9699012637138367,-1.6546049118041992
1700822869097062000,7.409061767578125,-0.5794820189476013,-1.1354458332061768,-2.100536584854126
1700822869107157000,7.419156982421875,-0.6045275330543518,-1.203251838684082,-1.7932713031768799
1700822869117227000,7.42922705078125,-0.5971971154212952,-0.8232936263084412,-1.4334716796875
1700822869127018000,7.43901806640625,-0.5721516609191895,-0.42867469787597656,-1.1402562856674194
1700822869137079000,7.4490791015625,-0.48663052916526794,-0.2955060601234436,-0.9130144715309143
1700822869147086000,7.459086181640625,-0.34918585419654846,-0.32421672344207764,-0.7450265288352966
1700822869157121000,7.46912109375,-0.20196732878684998,-0.28267788887023926,-0.7914522886276245
1700822869167284000,7.479283935546875,-0.11400272697210312,-0.24236078560352325,-1.0547351837158203
1700822869177076000,7.489075927734375,-0.10667234659194946,-0.2790127098560333,-1.2581533193588257
1700822869187298000,7.499298095703125,-0.10545061528682709,-0.18738290667533875,-1.365054726600647
1700822869197556000,7.509555908203125,-0.0492510087788105,-0.00045814894838258624,-1.3791046142578125
1700822869207477000,7.51947705078125,-0.0022143865935504436,0.004428773187100887,-1.1970667839050293
1700822869218066000,7.53006591796875,-0.0034361169673502445,0.06368270516395569,-0.9783770442008972
1700822869227377000,7.539376953125,0.006337726954370737,0.19807305932044983,-0.9069058299064636
1700822869237394000,7.549393798828125,-0.021151209250092506,0.3251330256462097,-0.9521098136901855
1700822869247261000,7.559260986328125,-0.10239628702402115,0.34284812211990356,-0.9948704242706299
1700822869257315000,7.569315185546875,-0.140269935131073,0.2402227520942688,-0.9722684025764465
1700822869267625000,7.579625,-0.1048397496342659,0.18707747757434845,-0.9521098136901855
1700822869277256000,7.589255859375,0.031383201479911804,0.1693623960018158,-0.8268824815750122
1700822869287279000,7.599279052734375,0.22014056146144867,0.1840231567621231,-0.5660430192947388
1700822869297308000,7.609307861328125,0.43944117426872253,0.24388794600963593,-0.2654972970485687
1700822869307253000,7.6192529296875,0.5970444083213806,0.2347249686717987,-0.02603813074529171
1700822869317217000,7.629217041015625,0.6465244889259338,0.22189679741859436,0.057039543986320496
1700822869327607000,7.63960693359375,0.5793293118476868,0.30863967537879944,0.03627012297511101
1700822869337390000,7.64939013671875,0.4400520622730255,0.35445454716682434,0.0020616701804101467
1700822869347334000,7.659333984375,0.2531272768974304,0.29397889971733093,0.022831087931990623
1700822869357427000,7.669427001953125,0.06864598393440247,0.17608191072940826,0.04726569727063179
1700822869367750000,7.67975,-0.09078984707593918,0.06062837690114975,0.06131559982895851
1700822869377994000,7.689993896484375,-0.15370896458625793,-0.020616702735424042,0.022831087931990623
1700822869387425000,7.699425048828125,-0.1152244582772255,-0.13729196786880493,-0.033368512988090515
1700822869397608000,7.70960791015625,0.007559457328170538,-0.22708915174007416,0.0014508049935102463
1700822869407440000,7.71943994140625,0.1480584591627121,-0.22159136831760406,0.060093868523836136
1700822869417197000,7.729197021484375,0.1419498175382614,-0.06215553730726242,0.0918588638305664
1700822869427150000,7.739150146484375,0.08880453556776047,-0.06154467165470123,0.23113614320755005
1700822869437227000,7.74922705078125,0.07108944654464722,-0.11468994617462158,0.3239876627922058
1700822869447320000,7.759320068359375,0.09063713252544403,-0.06765332818031311,0.3038291037082672
1700822869457235000,7.76923486328125,0.08147415518760681,-0.0022907445672899485,0.3191007375717163
1700822869467173000,7.779173095703125,0.05581781268119812,-0.06398813426494598,0.3557526469230652
1700822869477145000,7.78914501953125,-0.03214678168296814,-0.17027868330478668,0.2885574698448181
1700822869487226000,7.79922607421875,-0.17142406105995178,-0.19043724238872528,0.22991441190242767
1700822869497199000,7.80919921875,-0.28504499793052673,-0.275347501039505,0.2629011273384094
1700822869507232000,7.81923193359375,-0.31375566124916077,-0.447000652551651,0.33681583404541016
1700822869517230000,7.82922998046875,-0.2771037518978119,-0.5019785165786743,0.2995530366897583
1700822869527162000,7.839162109375,-0.25511258840560913,-0.4683809280395508,0.3136029541492462
1700822869537232000,7.84923193359375,-0.2569451928138733,-0.4940372705459595,0.515188455581665
1700822869547230000,7.85922998046875,-0.14943291246891022,-0.456163614988327,0.6960045695304871
1700822869557410000,7.86941015625,0.09430231899023056,-0.21792617440223694,0.7283804416656494
1700822869567690000,7.87968994140625,0.34231361746788025,0.15653422474861145,0.7729735970497131
1700822869577468000,7.889468017578125,0.5573381781578064,0.6433938145637512,0.7112762331962585
1700822869587339000,7.899339111328125,0.6825655698776245,0.7692320346832275,0.5946009755134583
1700822869597182000,7.909181884765625,0.7668649554252625,0.39538252353668213,0.6947828531265259
1700822869607402000,7.919402099609375,0.8914814591407776,0.2799290120601654,0.9440158605575562
1700822869617262000,7.929261962890625,1.0313695669174194,0.5230533480644226,1.0765736103057861
1700822869627555000,7.93955517578125,1.0252609252929688,0.6189591884613037,1.0643563270568848
1700822869637372000,7.949371826171875,0.9580658078193665,0.5114469528198242,1.113836407661438
1700822869647647000,7.95964697265625,0.8151233196258545,0.3904955983161926,1.1779773235321045
1700822869657112000,7.969112060546875,0.6147595047950745,0.20051652193069458,1.162705659866333
1700822869667239000,7.979239013671875,0.3960697650909424,-0.14706580340862274,1.1547644138336182
1700822869677186000,7.98918603515625,0.3203224539756775,-0.3455969989299774,1.1730903387069702
1700822869687248000,7.999247802734375,0.3893502354621887,-0.2893974184989929,1.1682034730911255
1700822869697263000,8.00926318359375,0.5206862688064575,-0.07742717117071152,1.1535426378250122
1700822869707149000,8.019149169921874,0.5628359913825989,0.06429356336593628,1.116890788078308
1700822869717443000,8.029443115234375,0.23785565793514252,-0.003512475173920393,0.5762749910354614
1700822869727271000,8.03927099609375,0.000839939690195024,-0.014508049935102463,0.20731239020824432
1700822869737365000,8.049364990234375,-0.07002042979001999,-0.04566217586398125,0.06620252132415771
1700822869747338000,8.059337890625,0.0069485921412706375,-0.11041389405727386,0.1071304902434349
1700822869757187000,8.06918701171875,0.2140319049358368,-0.08048149943351746,0.30077478289604187
1700822869767353000,8.07935302734375,0.4296673536300659,-0.21365012228488922,0.6306419968605042
1700822869777241000,8.089240966796876,0.5267949104309082,-0.48976120352745056,0.943405032157898
1700822869787507000,8.0995068359375,0.5029711723327637,-0.5398521423339844,0.9879981875419617
1700822869797907000,8.109906982421874,0.4516584873199463,-0.31444287300109863,0.7967973351478577
1700822869807288000,8.1192880859375,0.39179369807243347,-0.11957687139511108,0.4669301211833954
1700822869817620000,8.129619873046876,0.42294782400131226,0.04535674303770065,0.045433104038238525
1700822869827349000,8.139348876953125,0.5371796488761902,0.1589776873588562,-0.28504499793052673
1700822869837330000,8.149329833984375,0.590324878692627,0.17547103762626648,-0.5556582808494568
1700822869847794000,8.1597939453125,0.47303876280784607,0.23655757308006287,-0.8030587434768677
1700822869857116000,8.169115966796875,0.24457517266273499,0.3770565688610077,-1.0156397819519043
1700822869867427000,8.179427001953124,-0.0290924571454525,0.44364088773727417,-1.196455955505371
1700822869877344000,8.189343994140625,-0.20685423910617828,0.46563202142715454,-1.2856422662734985
1700822869888048000,8.200048095703124,-0.1659262776374817,0.40393465757369995,-1.271592378616333
1700822869897446000,8.20944580078125,-0.05230533704161644,0.24877487123012543,-1.0700068473815918
1700822869907327000,8.219326904296874,0.10651962459087372,-0.020616702735424042,-0.6100252866744995
1700822869917340000,8.22933984375,0.2647337317466736,-0.3828597962856293,-0.01748601719737053
1700822869927373000,8.239373046875,0.2952769994735718,-0.6772968173027039,0.5921574831008911
1700822869937392000,8.24939208984375,0.20120373368263245,-0.8886561989784241,1.0863474607467651
1700822869947268000,8.25926806640625,0.07903069257736206,-0.8458956480026245,1.2879329919815063
1700822869957340000,8.26933984375,-0.027259862050414085,-0.5618433356285095,1.2353986501693726
1700822869967289000,8.2792890625,-0.008933904580771923,-0.2301434874534607,0.962341845035553
1700822869977117000,8.289116943359375,0.1529453843832016,-0.01878410577774048,0.6025422215461731
1700822869987547000,8.299546875,0.334983229637146,0.11804971098899841,0.17066048085689545
1700822869997276000,8.30927587890625,0.3691916763782501,0.24877487123012543,-0.20257818698883057
1700822870007302000,8.319302001953124,0.2879466116428375,0.2811507284641266,-0.5147303342819214
1700822870017352000,8.32935205078125,0.1676061451435089,0.2817615866661072,-0.6833291053771973
1700822870027471000,8.33947119140625,-0.04375322163105011,0.19196440279483795,-0.43104177713394165
1700822870037428000,8.349427978515624,-0.11094839870929718,0.13087788224220276,-0.14454598724842072
1700822870047429000,8.35942919921875,-0.13904820382595062,0.09666942805051804,0.08819366991519928
1700822870057410000,8.36941015625,-0.06757696717977524,0.12049316614866257,0.17432567477226257
1700822870067415000,8.3794150390625,0.09369145333766937,0.18646661937236786,0.1480584591627121
1700822870077278000,8.38927783203125,0.2500729560852051,0.09056077152490616,0.08391761034727097
1700822870087349000,8.399348876953125,0.29222264885902405,0.2151772826910019,-0.030314188450574875
1700822870097647000,8.409647216796875,0.2335795909166336,0.25366178154945374,-0.12622003257274628
1700822870107464000,8.4194638671875,0.2140319049358368,0.39354994893074036,-0.25938865542411804
1700822870117262000,8.429261962890624,0.2745075821876526,0.5774203538894653,-0.3577379584312439
1700822870127117000,8.439116943359375,0.34781140089035034,0.6806566119194031,-0.3125339448451996
1700822870137129000,8.44912890625,0.477314829826355,0.7191411256790161,-0.05902485549449921
1700822870147183000,8.45918310546875,0.7265478372573853,0.6733261942863464,0.37346774339675903
1700822870157544000,8.4695439453125,1.0179306268692017,0.5041165351867676,0.8181776404380798
1700822870167297000,8.479297119140625,1.2195161581039429,0.35934147238731384,1.2109639644622803
1700822870177351000,8.489350830078125,1.3337478637695312,0.3000875413417816,1.5249487161636353
1700822870187230000,8.49922998046875,1.3490195274353027,0.3715587854385376,1.702710509300232
1700822870197283000,8.509282958984375,1.295263409614563,0.554818332195282,1.7625752687454224
1700822870207128000,8.519128173828125,1.1816424131393433,0.8107708692550659,1.7912859916687012
1700822870217257000,8.529257080078125,1.0460304021835327,1.3672691583633423,1.714316964149475
1700822870227150000,8.539150146484374,0.9177486896514893,2.1870503425598145,1.370399832725525
1700822870237183000,8.549182861328125,0.7387651801109314,3.0868546962738037,0.6202573180198669
1700822870247244000,8.559244140625,0.3557526469230652,4.1467061042785645,-0.21846067905426025
1700822870257143000,8.56914306640625,0.47364965081214905,5.028184413909912,-0.5238932967185974
1700822870267295000,8.579294921875,0.9250790476799011,4.265213966369629,-0.09262244403362274
1700822870277291000,8.589291015625,1.049695611000061,2.529134750366211,0.6318637132644653
1700822870287461000,8.599461181640624,0.6917285323143005,1.1962268352508545,1.3740650415420532
1700822870297395000,8.60939501953125,0.07475463300943375,0.917672336101532,1.843820333480835
1700822870307225000,8.61922509765625,-0.6796639561653137,0.9402743577957153,1.466916561126709
1700822870317746000,8.629745849609375,-1.508608102798462,1.5267049074172974,1.1523209810256958
1700822870327223000,8.63922314453125,-2.5311965942382812,1.9530888795852661,1.2555571794509888
1700822870337213000,8.649212890625,-3.1988723278045654,2.0147862434387207,1.6856062412261963
1700822870347153000,8.65915283203125,-3.0993010997772217,1.5493069887161255,2.3612232208251953
1700822870357215000,8.669215087890626,-2.4707207679748535,1.1858421564102173,2.319073438644409
1700822870367614000,8.679614013671875,-1.4365259408950806,0.5835290551185608,1.8053358793258667
1700822870377425000,8.6894248046875,-0.21235203742980957,0.16325373947620392,0.7460955381393433
1700822870387279000,8.699279052734376,0.5823836326599121,-0.03405573591589928,-0.46647197008132935
1700822870397226000,8.70922607421875,0.6330854892730713,-0.35353827476501465,-1.0193049907684326
1700822870407210000,8.7192099609375,0.36674821376800537,-0.5526803135871887,-0.8714756369590759
1700822870417666000,8.729666015625,0.0918588638305664,-0.26862800121307373,-0.3980550765991211
1700822870427341000,8.739341064453125,-0.05047274008393288,0.4161519408226013,0.11079568415880203
1700822870437407000,8.749406982421876,-0.09689849615097046,0.868803083896637,0.42905646562576294
1700822870447434000,8.75943408203125,-0.10728321224451065,0.7954992651939392,0.43333253264427185
1700822870457422000,8.769422119140625,-0.07918340712785721,0.48945578932762146,0.21036672592163086
1700822870467363000,8.779363037109375,-0.02054034359753132,0.22372940182685852,-0.03703370690345764
1700822870477096000,8.789095947265626,0.024052819237113,0.12476922571659088,-0.1146135926246643
1700822870487193000,8.799193115234376,0.04909829422831535,0.19379699230194092,-0.05169447138905525
1700822870497067000,8.80906689453125,0.06742425262928009,0.27870726585388184,0.03443752974271774
1700822870507053000,8.819052978515625,0.07536549866199493,0.26771169900894165,0.054596081376075745
1700822870517237000,8.829237060546875,0.07780896127223969,0.16630806028842926,-0.007712173741310835
1700822870527040000,8.8390400390625,0.07903069257736206,0.062460970133543015,-0.08590292185544968
1700822870537167000,8.8491669921875,0.06253732740879059,0.017867809161543846,-0.12438743561506271
1700822870547094000,8.859093994140625,0.03504839166998863,0.021532999351620674,-0.12133310735225677
1700822870557188000,8.86918798828125,0.012446379289031029,0.05696318298578262,-0.11278099566698074
1700822870567417000,8.8794169921875,0.011224648915231228,0.08994990587234497,-0.12316570430994034
1700822870577202000,8.889201904296876,0.03260493278503418,0.1339322030544281,-0.15126550197601318
1700822870587419000,8.8994189453125,0.0668133869767189,0.18768835067749023,-0.17936530709266663
1700822870597187000,8.90918701171875,0.08513934165239334,0.2145664244890213,-0.18669569492340088
1700822870607231000,8.91923095703125,0.08575020730495453,0.2194533348083496,-0.17814357578754425
1700822870617230000,8.92922998046875,0.07170030474662781,0.20112738013267517,-0.16165021061897278
1700822870627331000,8.9393310546875,0.057039543986320496,0.17058411240577698,-0.14882203936576843
1700822870637440000,8.94943994140625,0.05887213721871376,0.13271047174930573,-0.1396590620279312
1700822870647372000,8.9593720703125,0.08941540122032166,0.09728029370307922,-0.13416127860546112
1700822870657466000,8.969466064453124,0.09430231899023056,0.03375030308961868,-0.11766792088747025
1700822870667357000,8.97935693359375,0.09552405029535294,0.014202617108821869,-0.08223773539066315
1700822870677416000,8.989416015625,0.10102184116840363,0.009926560334861279,-0.036422841250896454
1700822870687436000,8.99943603515625,0.10590875893831253,0.020922135561704636,0.011835514567792416
1700822870697423000,9.009423095703125,0.10651962459087372,0.05451972410082817,0.05887213721871376
1700822870707297000,9.019297119140624,0.09613491594791412,0.10583240538835526,0.10590875893831253
1700822870717443000,9.029443115234375,0.08452847599983215,0.15164729952812195,0.14378240704536438
1700822870727432000,9.039431884765625,0.08391761034727097,0.19746218621730804,0.14011721312999725
1700822870737547000,9.049547119140625,0.10041097551584244,0.22739458084106445,0.10346530377864838
1700822870747439000,9.059439208984376,0.122402124106884,0.2298380434513092,0.06620252132415771
1700822870757376000,9.0693759765625,0.13156510889530182,0.20723603665828705,0.07292203605175018
1700822870767374000,9.0793740234375,0.12179125845432281,0.18096883594989777,0.1370628923177719
1700822870777376000,9.0893759765625,0.1126282811164856,0.1693623960018158,0.22258402407169342
1700822870787462000,9.0994619140625,0.0973566472530365,0.17730364203453064,0.30688342452049255
1700822870797327000,9.1093271484375,0.09918924421072006,0.18585574626922607,0.35819610953330994
1700822870807322000,9.119322021484376,0.09613491594791412,0.1388191282749176,0.3136029541492462
1700822870817384000,9.129384033203126,0.05337435007095337,0.050854530185461044,0.223194882273674
1700822870827469000,9.139468994140625,0.06620252132415771,0.12171489745378494,0.19204075634479523
1700822870837382000,9.1493818359375,0.11812606453895569,0.1944078654050827,0.29161179065704346
1700822870847378000,9.1593779296875,0.17676913738250732,0.1699732542037964,0.3844633102416992
1700822870857244000,9.169243896484375,0.1737148016691208,0.2952006161212921,0.34231361746788025
1700822870867414000,9.1794140625,0.15355625748634338,0.3972151279449463,0.3557526469230652
1700822870877477000,9.18947705078125,0.23052527010440826,0.26282477378845215,0.40340012311935425
1700822870887503000,9.199503173828125,0.34292447566986084,0.0025961773935705423,0.36369389295578003
1700822870898118000,9.210117919921874,0.3710242807865143,-0.2399173229932785,0.2702315151691437
1700822870907223000,9.21922314453125,0.27206411957740784,-0.3266601860523224,0.20181460678577423
1700822870917476000,9.22947607421875,0.1633300930261612,-0.26313021779060364,0.19142989814281464
1700822870927434000,9.23943408203125,0.1071304902434349,-0.18249599635601044,0.20547980070114136
1700822870937537000,9.249537109375,0.057650405913591385,-0.08597928285598755,0.19020816683769226
1700822870947585000,9.2595849609375,0.03260493278503418,0.0074830991216003895,0.12118039280176163
1700822870957146000,9.26914599609375,0.02344195358455181,0.10155634582042694,-0.01748601719737053
1700822870967242000,9.279241943359375,0.039324451237916946,0.07040221989154816,-0.2880993187427521
1700822870977390000,9.28939013671875,0.0924697294831276,-0.0022907445672899485,-0.31375566124916077
1700822870987266000,9.29926611328125,0.10651962459087372,-0.1941024363040924,-0.21784982085227966
1700822870997290000,9.3092900390625,0.05887213721871376,-0.37858372926712036,-0.10117455571889877
1700822871007195000,9.31919482421875,0.008781188167631626,-0.4922046661376953,0.019776761531829834
1700822871017376000,9.3293759765625,-0.03520110994577408,-0.3455969989299774,0.0869719386100769
1700822871028391000,9.340390869140625,-0.04008803144097328,-0.10308351367712021,0.09674578160047531
1700822871037383000,9.3493828125,0.04482223838567734,0.10644327104091644,0.039324451237916946
1700822871047344000,9.35934423828125,0.14378240704536438,0.17119498550891876,-0.07185302674770355
1700822871057263000,9.36926318359375,0.2549598813056946,0.11621711403131485,-0.19891299307346344
1700822871067198000,9.379197998046875,0.3801872432231903,-0.07131851464509964,-0.2722168266773224
1700822871077268000,9.38926806640625,0.4669301211833954,-0.1647808998823166,-0.3082578778266907
1700822871087357000,9.39935693359375,0.5359578728675842,-0.09025534242391586,-0.2978731691837311
1700822871097230000,9.40922998046875,0.5481752157211304,-0.04932736977934837,-0.16287194192409515
1700822871107393000,9.41939306640625,0.5017494559288025,0.07956519722938538,-0.0009926559869199991
1700822871117715000,9.42971484375,0.3649156391620636,0.45402559638023376,0.04909829422831535
1700822871127056000,9.439055908203125,0.20975585281848907,0.5444336533546448,0.12362385541200638
1700822871137183000,9.449182861328126,0.11323914676904678,0.5206099152565002,0.11507174372673035
1700822871147080000,9.459079833984376,0.1126282811164856,0.593302845954895,-0.047418415546417236
1700822871157265000,9.469264892578124,0.09674578160047531,0.7429648637771606,-0.26366472244262695
1700822871167254000,9.47925390625,0.039935316890478134,0.8816312551498413,-0.3980550765991211
1700822871177152000,9.489152099609376,-0.03764457255601883,0.9250026941299438,-0.4829653203487396
1700822871187267000,9.49926708984375,-0.13416127860546112,0.8736900091171265,-0.5513822436332703
1700822871197288000,9.509287841796874,-0.2679407596588135,0.7722864151000977,-0.5971971154212952
1700822871207017000,9.519016845703124,-0.3778965175151825,0.813825249671936,-0.5923101902008057
1700822871217339000,9.5293388671875,-0.3681226670742035,0.7240280508995056,-0.43043091893196106
1700822871227270000,9.539269775390625,-0.3876703679561615,0.8235990405082703,-0.38033998012542725
1700822871237379000,9.549379150390624,-0.4469242990016937,0.7600690722465515,-0.444480836391449
1700822871247373000,9.559373046875,-0.5373323559761047,0.6556110978126526,-0.43531784415245056
1700822871257189000,9.569189208984374,-0.5190063714981079,0.7258606553077698,-0.2862667143344879
1700822871267387000,9.579386962890625,-0.2929862439632416,0.5707008838653564,-0.13660474121570587
1700822871277415000,9.589414794921876,-0.06513350456953049,0.2506074607372284,-0.1860848218202591
1700822871287363000,9.599363037109375,0.1071304902434349,0.08933904021978378,-0.230677992105484
1700822871297373000,9.609373046875,0.11568260937929153,-0.10919216275215149,-0.2807689309120178
1700822871307223000,9.61922314453125,-0.0022143865935504436,-0.03039054572582245,-0.2758820056915283
1700822871317534000,9.629533935546876,-0.2056325078010559,0.13515393435955048,-0.25022566318511963
1700822871327448000,9.639447998046874,-0.4426482319831848,0.10155634582042694,-0.2465604841709137
1700822871337401000,9.649401123046875,-0.6894378066062927,-0.05665775015950203,-0.23312145471572876
1700822871347524000,9.659524169921875,-0.8067238926887512,-0.18799377977848053,-0.17203491926193237
1700822871357872000,9.6698720703125,-0.7224245071411133,-0.3413209617137909,-0.1298852264881134
1700822871367403000,9.679403076171875,-0.5471062064170837,-0.48609602451324463,-0.15798501670360565
1700822871377410000,9.68941015625,-0.4683045744895935,-0.2845104932785034,-0.22334760427474976
1700822871388189000,9.70018896484375,-0.4982369542121887,0.01114829070866108,-0.2819906771183014
1700822871397244000,9.709243896484375,-0.6417902708053589,0.20601430535316467,-0.263053834438324
1700822871407148000,9.71914794921875,-0.787176251411438,0.26832255721092224,-0.16653713583946228
1700822871417259000,9.729259033203125,-0.7945066094398499,0.19746218621730804,-0.06574437022209167
1700822871427311000,9.73931103515625,-0.6136904954910278,0.058795779943466187,-0.06513350456953049
1700822871437243000,9.749242919921874,-0.28443413972854614,-0.048105638474226,-0.1451568603515625
1700822871447175000,9.7591748046875,0.03565925732254982,-0.1238529309630394,-0.2526691257953644
1700822871457035000,9.769034912109374,0.24701863527297974,-0.05726861581206322,-0.3259729743003845
1700822871467259000,9.7792587890625,0.2580142021179199,0.02519819140434265,-0.3375793993473053
1700822871477143000,9.78914306640625,0.07841982692480087,0.168751522898674,-0.34979671239852905
1700822871487075000,9.799074951171875,-0.10178542137145996,0.23105977475643158,-0.43104177713394165
1700822871497159000,9.809158935546876,-0.12805262207984924,0.17608191072940826,-0.6289620995521545
1700822871507156000,9.819156005859375,0.016111571341753006,0.06979135423898697,-0.8855255246162415
1700822871517600000,9.82960009765625,0.16516269743442535,-0.005345070734620094,-1.03579843044281
1700822871527310000,9.83931005859375,0.15722143650054932,0.05146539583802223,-1.0205267667770386
1700822871537252000,9.849252197265624,0.12118039280176163,0.09239336848258972,-1.003422498703003
1700822871547079000,9.859078857421874,0.1370628923177719,0.1699732542037964,-0.9777661561965942
1700822871557268000,9.86926806640625,0.14072808623313904,0.19196440279483795,-0.9777661561965942
1700822871567280000,9.879280029296876,0.10590875893831253,0.06551529467105865,-1.024802803993225
1700822871577232000,9.88923193359375,0.0069485921412706375,-0.11835514008998871,-1.0895545482635498
1700822871587199000,9.899198974609375,-0.34918585419654846,-0.3058907687664032,-1.2184470891952515
1700822871597249000,9.9092490234375,-0.4194353520870209,-0.4024074673652649,-1.316185474395752
1700822871607007000,9.919007080078124,-0.4182136058807373,-0.3724750876426697,-1.3674981594085693
1700822871617138000,9.929137939453126,-0.3833943009376526,-0.30405816435813904,-1.405371904373169
1700822871627214000,9.939214111328125,-0.3516293168067932,-0.18249599635601044,-1.4243086576461792
1700822871637379000,9.949379150390625,-0.3058144152164459,-0.2344195395708084,-1.4756213426589966
1700822871647132000,9.9591318359375,-0.24533875286579132,-0.4262312352657318,-1.5867987871170044
1700822871657179000,9.969178955078124,-0.16287194192409515,-0.48426342010498047,-1.77433443069458
1700822871667269000,9.97926904296875,-0.16348281502723694,-0.3877467215061188,-2.0070741176605225
1700822871677354000,9.98935400390625,-0.25389087200164795,-0.346818745136261,-2.237370252609253
1700822871687192000,9.999192138671875,-0.3589596748352051,-0.4072943925857544,-2.3949735164642334
1700822871697659000,10.009658935546875,-0.3320816159248352,-0.4054618179798126,-2.5159249305725098
1700822871707336000,10.0193359375,-0.28382325172424316,-0.31261029839515686,-2.7242298126220703
1700822871717266000,10.029265869140625,-0.34429892897605896,-0.1342376321554184,-2.8842766284942627
1700822871727392000,10.03939208984375,-0.4481460154056549,-0.05604688450694084,-3.0455451011657715
1700822871737205000,10.049205078125,-0.5556582808494568,-0.022449297830462456,-3.379077434539795
1700822871747323000,10.059322998046875,-0.644233763217926,0.3068070709705353,-3.6912295818328857
1700822871757110000,10.069110107421874,-0.8036695718765259,0.3764457106590271,-3.797520160675049
1700822871767370000,10.079369873046875,-0.8971319794654846,-0.060322944074869156,-3.8775434494018555
1700822871777714000,10.0897138671875,-0.8519279360771179,-0.47571131587028503,-4.217184543609619
1700822871787724000,10.09972412109375,-0.7651850581169128,-0.5019785165786743,-4.730311393737793
1700822871797544000,10.1095439453125,-0.7040985822677612,-0.14034628868103027,-5.02780294418335
1700822871807440000,10.11943994140625,-0.8164977431297302,-0.048105638474226,-5.070563316345215
1700822871817476000,10.12947607421875,-1.2526555061340332,-0.365755558013916,-4.771850109100342
1700822871827468000,10.139468017578125,-1.423697829246521,-0.4280638098716736,-4.370511531829834
1700822871837460000,10.1494599609375,-0.8977428078651428,-0.26740625500679016,-4.126776695251465
1700822871847911000,10.159910888671876,-0.24778221547603607,-0.11713340878486633,-4.171369552612305
1700822871857357000,10.169357177734375,0.2293035387992859,-0.3156646192073822,-4.476802349090576
1700822871867429000,10.17942919921875,0.6214790344238281,-0.38469240069389343,-4.655174732208252
1700822871877529000,10.189529052734375,0.7937430143356323,-0.07864890247583389,-4.572097301483154
1700822871887405000,10.199405029296875,0.6593526601791382,0.4369213581085205,-4.331416606903076
1700822871897412000,10.209412109375,-0.22518019378185272,0.7533495426177979,-4.45969820022583
1700822871907375000,10.219375,-0.9447794556617737,1.0319041013717651,-4.214741230010986
1700822871917551000,10.229551025390625,-1.6833155155181885,1.0502300262451172,-3.912973642349243
1700822871927479000,10.23947900390625,-2.022345781326294,1.087492823600769,-3.5763869285583496
1700822871937435000,10.249434814453124,-1.898340106010437,0.9928087592124939,-3.4169511795043945
1700822871947494000,10.259493896484376,-1.6258941888809204,0.7429648637771606,-3.5653913021087646
1700822871957545000,10.269544921875,-1.2948052883148193,0.30375275015830994,-3.920914888381958
1700822871967335000,10.2793349609375,-0.9307295680046082,-0.08475755155086517,-4.285601615905762
1700822871977376000,10.2893759765625,-0.7095963358879089,-0.09941831976175308,-4.3882269859313965
1700822871987233000,10.29923291015625,-0.7621307373046875,-0.09636399149894714,-4.32103157043457
1700822871997261000,10.309260986328125,-1.1091022491455078,-0.052381694316864014,-4.10295295715332
1700822872007267000,10.31926708984375,-1.6277267932891846,0.033139441162347794,-3.759035587310791
1700822872017355000,10.32935498046875,-2.1384100914001465,0.10522153973579407,-3.529961109161377
1700822872027277000,10.339277099609374,-2.447507858276367,0.35750889778137207,-3.4279465675354004
1700822872037273000,10.349273193359375,-2.385810613632202,0.32391130924224854,-3.6014323234558105
1700822872047587000,10.359587158203125,-1.9349920749664307,-0.16111570596694946,-4.073631286621094
1700822872057255000,10.3692548828125,-1.2697597742080688,-0.5710062980651855,-4.559879779815674
1700822872067230000,10.37922998046875,-0.7095963358879089,-0.6485861539840698,-4.9777116775512695
1700822872077120000,10.3891201171875,-0.41149410605430603,-0.37797287106513977,-5.115767478942871
1700822872087328000,10.399327880859374,-0.4890739917755127,-0.14278975129127502,-4.928842544555664
1700822872097354000,10.40935400390625,-0.8323802351951599,-0.08109235763549805,-4.749248027801514
1700822872107214000,10.419214111328126,-1.214171051979065,0.11194105446338654,-4.564766883850098
1700822872117283000,10.429282958984375,-1.3155746459960938,0.5065600275993347,-4.330194473266602
1700822872127627000,10.439626953125,-0.9777661561965942,0.9335548281669617,-4.180532455444336
1700822872137237000,10.449237060546874,-1.022970199584961,0.5181664228439331,-4.4273223876953125
1700822872147270000,10.459269775390625,-1.096884846687317,-0.5062545537948608,-4.77856969833374
1700822872157367000,10.469366943359375,-0.9423360228538513,-0.974177360534668,-4.86714506149292
1700822872167349000,10.479348876953125,-0.785954475402832,-0.6571382880210876,-4.72175931930542
1700822872177287000,10.489286865234375,-0.7517460584640503,-0.22892175614833832,-4.4187703132629395
1700822872187244000,10.499244140625,-0.815886914730072,-0.05849034711718559,-4.177478313446045
1700822872197209000,10.509208984375,-0.6796639561653137,-0.1898263692855835,-4.174424171447754
1700822872207265000,10.51926513671875,-0.1909717470407486,-0.19715675711631775,-4.704044342041016
1700822872217278000,10.52927783203125,0.1474476009607315,-0.14156801998615265,-5.028413772583008
1700822872227389000,10.539388916015625,0.45471280813217163,-0.17272214591503143,-5.4602952003479
1700822872237286000,10.549285888671875,0.5194645524024963,0.02519819140434265,-5.856135845184326
1700822872247936000,10.55993603515625,0.3032182455062866,0.25671613216400146,-6.192722797393799
1700822872257319000,10.56931884765625,-0.09323330968618393,0.5010622143745422,-6.297180652618408
1700822872267270000,10.579269775390625,-0.5031238794326782,0.5474879741668701,-5.8793487548828125
1700822872277392000,10.589391845703124,-0.7218136191368103,0.64217209815979,-4.981377124786377
1700822872287312000,10.599311767578126,-0.8342128396034241,0.7680103182792664,-4.050418376922607
1700822872297338000,10.609338134765625,-1.0956631898880005,1.0844385623931885,-3.3253214359283447
1700822872307365000,10.619365234375,-1.5880205631256104,1.8168659210205078,-2.915430784225464
1700822872317268000,10.62926806640625,-1.9013944864273071,2.2212586402893066,-2.6637542247772217
1700822872327383000,10.639383056640625,-1.944154977798462,2.369699001312256,-2.5873961448669434
1700822872337605000,10.649605224609376,-1.8256471157073975,2.001347303390503,-2.7052931785583496
1700822872347348000,10.659347900390625,-1.6717090606689453,1.4656184911727905,-2.9759063720703125
1700822872357434000,10.66943408203125,-1.4634040594100952,1.1192578077316284,-3.2379674911499023
1700822872367263000,10.679262939453125,-1.0932197570800781,0.6238461136817932,-3.3491451740264893
1700822872377525000,10.68952490234375,-0.5489387512207031,0.05696318298578262,-3.22269606590271
1700822872387459000,10.699458984375,0.004505131393671036,-0.4940372705459595,-2.9032135009765625
1700822872397435000,10.709434814453125,0.25740334391593933,-0.9222537875175476,-2.3876430988311768
1700822872407358000,10.71935791015625,0.17676913738250732,-1.6351335048675537,-1.4927256107330322
1700822872417317000,10.729317138671876,-0.0290924571454525,-2.699871778488159,-0.22456933557987213
1700822872427373000,10.739373046875,-0.18852828443050385,-3.1836769580841064,0.9403507113456726
1700822872437192000,10.74919189453125,-0.2416735589504242,-1.962557315826416,1.1327732801437378
1700822872447206000,10.759205810546876,-0.4023311138153076,-0.3651446998119354,0.6031530499458313
1700822872457176000,10.769176025390625,-0.4224896728992462,0.11255192011594772,0.17554740607738495
1700822872467201000,10.779200927734376,-0.30886873602867126,0.08445212244987488,-0.03764457255601883
1700822872477151000,10.78915087890625,-0.17753271758556366,0.11438451707363129,-0.1249983012676239
1700822872487035000,10.799034912109375,-0.01687515154480934,0.10522153973579407,-0.15370896458625793
1700822872497154000,10.809154052734375,0.09552405029535294,-0.07009678333997726,-0.14149166643619537
1700822872507254000,10.81925390625,0.15966489911079407,-0.37369680404663086,-0.09201157838106155
1700822872517256000,10.829255859375,0.3905719518661499,-0.7127270102500916,0.09674578160047531
1700822872527389000,10.839388916015626,0.4852560758590698,-0.5300782918930054,0.2390773892402649
1700822872537301000,10.849301025390625,0.3991240859031677,-0.13057245314121246,0.3563635051250458
1700822872547355000,10.85935498046875,0.3038291037082672,0.30253100395202637,0.45898887515068054
1700822872557773000,10.86977294921875,0.2683989107608795,0.5890268087387085,0.5719989538192749
1700822872567309000,10.87930908203125,0.3245985209941864,0.5145012736320496,0.5292384028434753
1700822872577520000,10.88952001953125,0.4113413989543915,0.22678372263908386,0.2855031490325928
1700822872587057000,10.899056884765624,0.45837801694869995,0.026419922709465027,0.039935316890478134
1700822872597069000,10.909069091796875,0.3807981312274933,-0.23380866646766663,-0.12377656996250153
1700822872607044000,10.919044189453125,0.142560675740242,-0.4225660264492035,-0.19280433654785156
1700822872617209000,10.929208984375,-0.12683089077472687,-0.5881105065345764,-0.24900394678115845
1700822872627252000,10.939251953125,-0.3064252734184265,-0.65958172082901,-0.2978731691837311
1700822872637157000,10.9491572265625,-0.3888920843601227,-0.5135849714279175,-0.2367866337299347
1700822872647627000,10.959626953125,-0.363235741853714,-0.24113905429840088,-0.0749073475599289
1700822872657210000,10.969210205078125,-0.30947959423065186,0.039248090237379074,0.052152618765830994
1700822872667186000,10.97918603515625,-0.282601535320282,0.25671613216400146,0.10041097551584244
1700822872677218000,10.989218017578125,-0.23923009634017944,0.4155410826206207,0.09308059513568878
1700822872687157000,10.999156982421875,-0.23800836503505707,0.4430300295352936,0.052152618765830994
1700822872697286000,11.009285888671876,-0.2618321180343628,0.2652682363986969,-0.002825251780450344
1700822872707242000,11.019241943359376,-0.2758820056915283,0.07895433157682419,-0.027259862050414085
1700822872717240000,11.029239990234375,-0.2557234764099121,0.05268712714314461,-0.0016035212902352214
1700822872727589000,11.039589111328125,-0.13293954730033875,0.2096794992685318,0.05887213721871376
1700822872737155000,11.049155029296875,0.07658722996711731,0.35934147238731384,0.13034337759017944
1700822872747238000,11.05923779296875,0.25190556049346924,0.351400226354599,0.24701863527297974
1700822872757418000,11.06941796875,0.3691916763782501,0.3770565688610077,0.3704134225845337
1700822872767391000,11.079390869140624,0.36247217655181885,0.432034432888031,0.44982588291168213
1700822872777477000,11.08947705078125,0.30688342452049255,0.3831652104854584,0.554283857345581
1700822872787303000,11.099302978515626,0.3239876627922058,0.26893341541290283,0.5634468197822571
1700822872797401000,11.109401123046876,0.3404810130596161,0.10277807712554932,0.4400520622730255
1700822872807362000,11.119362060546875,0.29772046208381653,-0.11774427443742752,0.2586250603199005
1700822872817493000,11.129492919921875,0.11323914676904678,-0.3804163336753845,0.06986771523952484
1700822872827598000,11.13959814453125,-0.07063129544258118,-0.8281805515289307,0.20486892759799957
1700822872837321000,11.149321044921875,-0.38950294256210327,-1.0047205686569214,0.38385245203971863
1700822872847460000,11.159460205078124,-0.7529677748680115,-1.1507173776626587,0.5457317233085632
1700822872857475000,11.16947509765625,-0.9539424180984497,-1.1861475706100464,0.6269767880439758
1700822872867476000,11.17947607421875,-1.054124355316162,-0.9479101300239563,0.5946009755134583
1700822872877479000,11.18947900390625,-1.1286499500274658,-0.6944010853767395,0.686841607093811
1700822872887316000,11.19931591796875,-1.1115456819534302,-0.6357579827308655,0.9983828663825989
1700822872897476000,11.20947607421875,-1.1219303607940674,-0.8678867816925049,1.2622766494750977
1700822872907357000,11.21935693359375,-0.9221774339675903,-1.3205379247665405,0.9647852778434753
1700822872917440000,11.22943994140625,-0.12683089077472687,-0.45005497336387634,-0.49762609601020813
1700822872927467000,11.239467041015626,0.30749428272247314,0.37339138984680176,-1.232496976852417
1700822872937230000,11.24922998046875,0.3044399619102478,0.3049744665622711,-0.6228534579277039
1700822872947535000,11.25953515625,0.396680623292923,0.27809640765190125,0.30749428272247314
1700822872957258000,11.269258056640625,0.49502992630004883,0.47051894664764404,0.942794144153595
1700822872967271000,11.27927099609375,0.4101196527481079,0.5823072791099548,0.8768206834793091
1700822872977071000,11.289071044921876,0.23235787451267242,0.2616030275821686,0.19142989814281464
1700822872987089000,11.2990888671875,0.18471038341522217,-0.3804163336753845,-0.2416735589504242
1700822872997194000,11.309194091796876,0.2238057553768158,-0.5868887901306152,-0.0541379339993
1700822873007248000,11.319247802734376,0.1321759670972824,-0.23319780826568604,0.32154420018196106
1700822873017179000,11.329178955078126,-0.09628763794898987,0.20784689486026764,0.4162282943725586
1700822873027324000,11.339323974609375,-0.3791182339191437,0.32268956303596497,0.17493653297424316
1700822873037489000,11.349489013671874,-0.5086216926574707,0.005039638374000788,-0.17386752367019653
1700822873047194000,11.359194091796875,-0.4133267104625702,-0.375529408454895,-0.4194353520870209
1700822873057171000,11.3691708984375,-0.16470454633235931,-0.4934264123439789,-0.48052188754081726
1700822873067331000,11.3793310546875,-0.044974952936172485,-0.2704605758190155,-0.4279874563217163
1700822873077462000,11.3894619140625,-0.14943291246891022,0.11499538272619247,-0.4218788146972656
1700822873087120000,11.399119873046875,-0.47013717889785767,0.6604980230331421,-0.48174360394477844
1700822873097339000,11.4093388671875,-0.8000044226646423,1.1400272846221924,-0.5599343776702881
1700822873107400000,11.41939990234375,-0.9447794556617737,1.1742357015609741,-0.5354997515678406
1700822873117346000,11.429345947265626,-0.8800277709960938,0.8736900091171265,-0.37117698788642883
1700822873127214000,11.439214111328125,-0.6680575013160706,0.5584835410118103,-0.2771037518978119
1700822873137132000,11.449132080078124,-0.31864258646965027,0.28725937008857727,-0.41088324785232544
1700822873147217000,11.459216796875,-0.25389087200164795,0.14065171778202057,-0.3870594799518585
1700822873157355000,11.46935498046875,-0.25511258840560913,-0.09392052888870239,-0.19463694095611572
1700822873167172000,11.479172119140625,-0.23189972341060638,-0.2912299931049347,0.0417679101228714
1700822873177671000,11.4896708984375,-0.16898059844970703,-0.09208793938159943,0.1126282811164856
1700822873187499000,11.4994990234375,-0.10606148093938828,0.33918291330337524,-0.016264287754893303
1700822873197407000,11.509406982421876,-0.12072224169969559,0.45402559638023376,-0.11583532392978668
1700822873207333000,11.5193330078125,-0.13660474121570587,0.33368512988090515,-0.04619668424129486
1700822873217199000,11.52919921875,-0.11644618958234787,0.2548835277557373,0.04604396969079971
1700822873227769000,11.53976904296875,-0.10178542137145996,0.16814066469669342,0.09430231899023056
1700822873237092000,11.549092041015625,-0.08895725011825562,-0.04444044828414917,0.1370628923177719
1700822873247410000,11.559409912109375,-0.015042556449770927,-0.3217732608318329,0.1932624876499176
1700822873257193000,11.56919287109375,0.013057244941592216,-0.49953505396842957,0.21952970325946808
1700822873267117000,11.579116943359375,-0.0749073475599289,-0.42439863085746765,0.22502748668193817
1700822873277324000,11.589323974609375,-0.1555415689945221,-0.1598939746618271,0.23052527010440826
1700822873287273000,11.59927294921875,-0.2154063582420349,0.13820825517177582,0.19509509205818176
1700822873297164000,11.6091640625,-0.2819906771183014,0.34895676374435425,0.08269587904214859
1700822873307944000,11.61994384765625,-0.29359710216522217,0.39416080713272095,-0.06513350456953049
1700822873317219000,11.629218994140626,-0.30398181080818176,0.27320948243141174,-0.25328001379966736
1700822873327407000,11.639406982421875,-0.4218788146972656,0.06551529467105865,-0.47685667872428894
1700822873337083000,11.649082763671874,-0.577038586139679,-0.05360342562198639,-0.6564510464668274
1700822873347400000,11.65939990234375,-0.7114289402961731,-0.060322944074869156,-0.7816784381866455
1700822873357392000,11.669391845703124,-0.8372671604156494,-0.009621127508580685,-0.9050732254981995
1700822873367196000,11.67919580078125,-0.9117927551269531,-0.037110064178705215,-1.0113637447357178
1700822873377383000,11.6893828125,-0.909349262714386,-0.24724771082401276,-1.0076985359191895
1700822873387349000,11.699348876953126,-0.8482627272605896,-0.4879286289215088,-0.8971319794654846
1700822873397357000,11.709357177734375,-0.7132615447044373,-0.6675229668617249,-0.748080849647522
1700822873407290000,11.7192900390625,-0.41515928506851196,-0.68951416015625,-0.5190063714981079
1700822873417160000,11.729159912109376,-0.053527068346738815,-0.3804163336753845,-0.2459496259689331
1700822873428060000,11.740059814453126,0.29772046208381653,0.032528575509786606,0.2531272768974304
1700822873437153000,11.749153076171876,0.29772046208381653,0.26771169900894165,0.2531272768974304
1700822873447410000,11.759409912109374,0.26106852293014526,0.6305656433105469,0.47303876280784607
1700822873457427000,11.769427001953124,0.33864840865135193,0.6568328738212585,0.7094436287879944
1700822873467352000,11.77935205078125,0.4260021448135376,0.6189591884613037,0.942794144153595
1700822873477418000,11.78941796875,0.4724279046058655,0.3110831379890442,1.0472520589828491
1700822873487434000,11.79943408203125,0.5078580975532532,-0.20387627184391022,1.0179306268692017
1700822873497546000,11.8095458984375,0.5384013652801514,-0.7738135457038879,0.923246443271637
1700822873507561000,11.81956103515625,0.5274057984352112,-1.2435688972473145,0.8829293251037598
1700822873517384000,11.829384033203125,0.4522693455219269,-1.4249958992004395,0.9409615397453308
1700822873527544000,11.8395439453125,0.3239876627922058,-1.260062336921692,0.9947177171707153
1700822873537343000,11.849343017578125,0.2134210467338562,-0.9668469429016113,0.9702830910682678
1700822873547188000,11.85918798828125,0.21036672592163086,-0.8581129312515259,0.9342420101165771
1700822873557444000,11.869444091796876,0.3643047511577606,-0.9521862268447876,0.9006444215774536
1700822873567461000,11.879461181640625,0.5512295365333557,-0.9527970552444458,0.7992408275604248
1700822873577983000,11.88998291015625,0.5927683711051941,-0.5832235813140869,0.619035542011261
1700822873587387000,11.899386962890626,0.5145776271820068,-0.12018773704767227,0.42783474922180176
1700822873597356000,11.90935595703125,0.40340012311935425,0.10461067408323288,0.3050508201122284
1700822873607719000,11.919718994140625,0.26106852293014526,0.038637228310108185,0.2683989107608795
1700822873617425000,11.9294248046875,0.11629346758127213,-0.10125091671943665,0.19142989814281464
1700822873628151000,11.940151123046874,0.02344195358455181,-0.21365012228488922,0.06742425262928009
1700822873637352000,11.94935205078125,-0.02054034359753132,-0.2606867551803589,-0.0645226389169693
1700822873647285000,11.959284912109375,0.014278975315392017,-0.18616119027137756,-0.19708040356636047
1700822873657122000,11.9691220703125,0.06803511828184128,-0.0633772686123848,-0.27466028928756714
1700822873667088000,11.979087890625,0.033826664090156555,0.1644754707813263,-0.3223077654838562
1700822873677323000,11.989322998046875,-0.10667234659194946,0.471129834651947,-0.40966150164604187
1700822873687048000,11.9990478515625,-0.25389087200164795,0.6311765313148499,-0.5306128263473511
1700822873697190000,12.00918994140625,-0.2832123935222626,0.6629415154457092,-0.576427698135376
1700822873707139000,12.01913916015625,-0.2624429762363434,0.6885978579521179,-0.5135086178779602
1700822873717142000,12.02914208984375,-0.25022566318511963,0.7063129544258118,-0.4689154326915741
1700822873727238000,12.03923779296875,-0.18303050100803375,0.593302845954895,-0.4695262908935547
1700822873737329000,12.049328857421875,-0.05719225853681564,0.3361285924911499,-0.4469242990016937
1700822873747221000,12.059220947265626,0.11323914676904678,0.1290452778339386,-0.39011383056640625
1700822873757305000,12.06930517578125,0.2238057553768158,-0.06887505948543549,-0.24045182764530182
1700822873767205000,12.079205078125,-0.04864014685153961,-0.28756481409072876,-0.2862667143344879
1700822873777276000,12.08927587890625,-0.28871017694473267,-0.5459607839584351,-0.21846067905426025
1700822873787325000,12.099324951171875,-0.272827684879303,-0.6217080950737,0.0014508049935102463
1700822873797253000,12.109253173828124,-0.08407033234834671,-0.5636758804321289,0.21097758412361145
1700822873807457000,12.11945703125,0.19509509205818176,-0.41951170563697815,0.3050508201122284
1700822873817340000,12.12933984375,0.36369389295578003,-0.244804248213768,0.3410918712615967
1700822873827911000,12.139910888671874,0.30199649930000305,-0.11713340878486633,0.3551417887210846
1700822873837317000,12.149317138671876,0.20120373368263245,-0.007177666760981083,0.28611400723457336
1700822873847306000,12.159305908203125,0.11873693019151688,-0.03649919852614403,0.21219931542873383
1700822873857372000,12.169371826171876,0.033826664090156555,-0.05849034711718559,0.13461942970752716
1700822873867445000,12.179445068359374,-0.013209961354732513,0.005039638374000788,0.07047858089208603
1700822873877520000,12.189519775390625,-0.021151209250092506,0.03130684420466423,0.039324451237916946
1700822873887427000,12.199427001953126,0.006337726954370737,-0.06765332818031311,0.000839939690195024
1700822873897538000,12.2095380859375,0.05337435007095337,-0.2405281960964203,-0.05047274008393288
1700822873907361000,12.219361083984374,0.072311170399189,-0.3553708493709564,-0.09689849615097046
1700822873917289000,12.2292890625,0.033826664090156555,-0.38408151268959045,-0.12255483865737915
1700822873927513000,12.23951318359375,0.033826664090156555,-0.3700316250324249,-0.14698944985866547
1700822873937322000,12.249322021484375,0.006337726954370737,-0.27718010544776917,-0.18180876970291138
1700822873947259000,12.2592587890625,0.05032002553343773,-0.1843285858631134,-0.16836974024772644
1700822873957222000,12.269221923828125,0.07170030474662781,-0.14584407210350037,-0.1249983012676239
1700822873967271000,12.27927099609375,0.08452847599983215,-0.007177666760981083,-0.1408807933330536
1700822873977303000,12.289302978515625,0.12606731057167053,0.28909197449684143,-0.19402606785297394
1700822873987208000,12.2992080078125,0.1883755773305893,0.45891252160072327,-0.07857254147529602
1700822873997266000,12.309265869140624,0.13095423579216003,0.39843684434890747,0.08758280426263809
1700822874007287000,12.319287109375,0.004505131393671036,0.3055853247642517,0.06803511828184128
1700822874017356000,12.32935595703125,-0.07796167582273483,0.19685132801532745,-0.053527068346738815
1700822874027255000,12.339255126953125,-0.10545061528682709,0.11255192011594772,-0.11033753305673599
1700822874037619000,12.349618896484374,-0.130496084690094,0.18096883594989777,-0.09323330968618393
1700822874047481000,12.359481201171874,-0.13293954730033875,0.3312416672706604,-0.05169447138905525
1700822874057227000,12.36922705078125,-0.10422888398170471,0.41920626163482666,-0.00038179077091626823
1700822874067395000,12.37939501953125,-0.03703370690345764,0.32391130924224854,0.04909829422831535
1700822874077282000,12.389281982421876,0.007559457328170538,0.1742493063211441,0.027718011289834976
1700822874087354000,12.39935400390625,0.05093089118599892,-0.014508049935102463,0.00022907447419129312
1700822874097390000,12.40939013671875,0.07780896127223969,-0.14706580340862274,-0.029703322798013687
1700822874107438000,12.41943798828125,0.09857837855815887,-0.1837177276611328,-0.05230533704161644
1700822874117334000,12.429333984375,0.1071304902434349,-0.12263119965791702,-0.0645226389169693
1700822874127332000,12.43933203125,0.10529789328575134,0.027030786499381065,-0.06574437022209167
1700822874137369000,12.449369140625,0.09308059513568878,0.1699732542037964,-0.06879869848489761
1700822874147470000,12.459469970703125,0.08025242388248444,0.25671613216400146,-0.09323330968618393
1700822874157479000,12.46947900390625,0.06559165567159653,0.27809640765190125,-0.12866349518299103
1700822874167657000,12.479656982421876,0.03749185428023338,0.1999056488275528,-0.12316570430994034
1700822874177723000,12.489722900390625,0.010002918541431427,0.11621711403131485,-0.0999528244137764
1700822874187361000,12.499361083984375,-0.00038179077091626823,0.09300423413515091,-0.10300715267658234
1700822874197457000,12.509456787109375,0.019776761531829834,0.14126259088516235,-0.12438743561506271
1700822874207364000,12.519364013671876,0.06559165567159653,0.23655757308006287,-0.10056369006633759
1700822874217669000,12.529669189453125,0.11873693019151688,0.34956762194633484,-0.04069889709353447
1700822874228046000,12.540046142578126,0.1529453843832016,0.42531493306159973,0.0038942659739404917
1700822874237391000,12.54939111328125,0.21036672592163086,0.42409318685531616,0.02955060638487339
