time,seconds_elapsed,z,y,x
1700822861895892500,0.207892578125,8.604761123657227,2.208651065826416,-0.7613561153411865
1700822861907351300,0.219351318359375,7.989450931549072,1.6962919235229492,-1.4496891498565674
1700822861918040600,0.23004052734375,7.987056732177734,1.5598224401474,-1.556231141090393
1700822861928319700,0.24031982421875,8.271966934204102,1.522712230682373,-1.5921441316604614
1700822861938509300,0.25050927734375,8.544905662536621,1.4963760375976562,-1.5107412338256836
1700822861948561700,0.260561767578125,8.6897554397583,1.437718152999878,-1.4437036514282227
1700822861958614800,0.27061474609375,8.902838706970215,1.4257471561431885,-1.37906014919281
1700822861968627500,0.28062744140625,9.238027572631836,1.4413094520568848,-1.4053963422775269
1700822861978635800,0.2906357421875,9.478644371032715,1.3563152551651,-1.3946224451065063
1700822861988614400,0.300614501953125,9.603142738342285,1.3634978532791138,-1.236605167388916
1700822861998669000,0.3106689453125,9.804255485534668,1.581370234489441,-0.9050082564353943
1700822862008897000,0.32089697265625,10.010157585144043,1.7932571172714233,-0.6224924325942993
1700822862018757600,0.330757568359375,10.1382474899292,1.944091796875,-0.5339069962501526
1700822862028757200,0.34075732421875,10.047266960144043,1.9393033981323242,-0.5758054852485657
1700822862038757000,0.350757080078125,9.829395294189453,1.764526605606079,-0.7398083209991455
1700822862049050600,0.361050537109375,9.5408935546875,1.6172832250595093,-0.9062053561210632
1700822862059010300,0.37101025390625,9.339780807495117,1.624465823173523,-1.0797849893569946
1700822862068936700,0.380936767578125,9.17577838897705,1.6292542219161987,-1.2318167686462402
1700822862078842400,0.39084228515625,9.004592895507812,1.5454572439193726,-1.282094955444336
1700822862088848100,0.40084814453125,8.792705535888672,1.4891934394836426,-1.1264718770980835
1700822862099154200,0.411154296875,8.7268648147583,1.3072341680526733,-0.99479079246521
1700822862109036500,0.42103662109375,13.620613098144531,2.1128830909729004,0.6416460275650024
1700822862118913800,0.430913818359375,13.784616470336914,2.185906171798706,2.0422539710998535
1700822862128790300,0.440790283203125,8.720879554748535,1.5646108388900757,-1.8926163911819458
1700822862138776000,0.450776123046875,10.540472984313965,1.8363527059555054,-1.9488801956176758
1700822862149148700,0.461148681640625,8.832210540771484,1.40180504322052,-1.3096283674240112
1700822862159011300,0.47101123046875,9.307458877563477,1.4209587574005127,-1.2413935661315918
1700822862168968700,0.48096875,9.10993766784668,1.6089035272598267,-1.1982979774475098
1700822862178984000,0.49098388671875,9.205705642700195,1.8064252138137817,-1.113303780555725
1700822862188873500,0.50087353515625,8.950722694396973,1.9704279899597168,-1.1468225717544556
1700822862199133700,0.5111337890625,8.491036415100098,1.9943699836730957,-1.05105459690094
1700822862208968400,0.520968505859375,8.419210433959961,1.8854337930679321,-1.0426748991012573
1700822862218866700,0.53086669921875,8.595184326171875,1.7705121040344238,-0.7194576263427734
1700822862228851500,0.5408515625,9.959878921508789,1.866280198097229,0.2406172752380371
1700822862238809000,0.55080908203125,11.189301490783691,1.4652514457702637,0.26575639843940735
1700822862248739600,0.560739501953125,10.99896240234375,1.3239935636520386,0.5913678407669067
1700822862258764800,0.570764892578125,11.32457447052002,1.3072341680526733,0.06224924325942993
1700822862268772900,0.58077294921875,10.615890502929688,1.5167267322540283,-0.3292027413845062
1700822862278681900,0.590681884765625,10.230423927307129,1.6531962156295776,-0.27653029561042786
1700822862288715500,0.600715576171875,9.874884605407715,1.5430630445480347,-0.2825157940387726
1700822862298814700,0.610814697265625,9.625887870788574,1.3192051649093628,-0.4776432514190674
1700822862308727300,0.620727294921875,9.191340446472168,1.1875240802764893,-0.8032546639442444
1700822862318688800,0.630688720703125,8.610746383666992,1.5310919284820557,-1.1300631761550903
1700822862328695800,0.64069580078125,8.196549415588379,1.8339585065841675,-1.6077064275741577
1700822862338665000,0.6506650390625,8.033743858337402,1.922544002532959,-1.5155296325683594
1700822862348686000,0.66068603515625,8.92917537689209,1.8483237028121948,-0.7541735172271729
1700822862358643000,0.670642822265625,9.580398559570312,1.8291701078414917,-0.333991140127182
1700822862368702000,0.680701904296875,9.184157371520996,1.8255788087844849,-0.569819986820221
1700822862378720000,0.690719970703125,8.394071578979492,1.8255788087844849,-0.8918401598930359
1700822862388739000,0.700739013671875,8.210914611816406,1.8938134908676147,-0.8224082589149475
1700822862398880000,0.7108798828125,8.604761123657227,2.1164743900299072,-0.5363011956214905
1700822862408817000,0.72081689453125,9.107542991638184,2.2649147510528564,-0.4118026793003082
1700822862418776600,0.730776611328125,9.469067573547363,2.3235726356506348,-0.29568392038345337
1700822862428749300,0.740749267578125,9.703699111938477,2.1703438758850098,-0.40462008118629456
1700822862438797000,0.750797119140625,9.54209041595459,1.9476830959320068,-0.5267243981361389
1700822862448733200,0.760733154296875,9.44752025604248,1.5693992376327515,-0.7050924301147461
1700822862458677500,0.770677490234375,9.475052833557129,1.3730746507644653,-0.6224924325942993
1700822862468663300,0.780663330078125,9.62828254699707,1.533486247062683,-0.34356793761253357
1700822862478655700,0.79065576171875,9.68933391571045,1.7896658182144165,-0.456095427274704
1700822862488648200,0.800648193359375,9.307458877563477,1.8148049116134644,-0.6356605291366577
1700822862498661600,0.81066162109375,9.012971878051758,1.600523829460144,-0.5662286877632141
1700822862508654300,0.820654296875,9.039308547973633,1.6077064275741577,-0.4189853072166443
1700822862518702000,0.8307021484375,8.932766914367676,1.7058687210083008,-0.4776432514190674
1700822862528775200,0.840775146484375,9.941922187805176,2.4181437492370605,0.181959331035614
1700822862538761000,0.850760986328125,10.631452560424805,2.8874073028564453,0.950498104095459
1700822862548792600,0.86079248046875,10.631452560424805,3.046621561050415,1.6891093254089355
1700822862558915300,0.870915283203125,10.016142845153809,2.806004285812378,1.821987509727478
1700822862568869000,0.880869140625,9.254786491394043,2.1164743900299072,1.5406688451766968
1700822862578921500,0.89092138671875,9.094375610351562,1.414973258972168,1.3515268564224243
1700822862588936700,0.900936767578125,9.39365005493164,1.622071623802185,1.889025092124939
1700822862598942000,0.91094189453125,9.889249801635742,2.139219284057617,2.6024973392486572
1700822862608881000,0.920880859375,9.961075782775879,2.604891538619995,2.9472622871398926
1700822862618857500,0.930857421875,9.603142738342285,2.9891607761383057,2.8814218044281006
1700822862628881200,0.940881103515625,9.331400871276855,3.0370447635650635,2.4193408489227295
1700822862639901700,0.951901611328125,9.080010414123535,3.112462282180786,2.167949676513672
1700822862649284900,0.961284912109375,9.215282440185547,2.8862102031707764,1.98958158493042
1700822862658960400,0.97096044921875,9.684545516967773,2.474407434463501,1.9716250896453857
1700822862668794000,0.980794189453125,10.35372543334961,2.3918075561523438,2.141613483428955
1700822862678783000,0.990782958984375,10.862493515014648,2.5773582458496094,2.6132712364196777
1700822862688794000,1.000794189453125,11.299434661865234,2.804807186126709,3.184288263320923
1700822862698848500,1.0108486328125,11.057621002197266,3.220201253890991,3.599682331085205
1700822862708820700,1.02082080078125,10.072406768798828,3.5434184074401855,3.626018524169922
1700822862718790400,1.030790283203125,9.580398559570312,3.7612907886505127,3.378218650817871
1700822862728759300,1.04075927734375,8.920795440673828,3.6966474056243896,3.223792552947998
1700822862738734000,1.050734130859375,7.829039573669434,3.0801405906677246,2.542642116546631
1700822862748680000,1.060679931640625,7.224503517150879,2.205059766769409,1.3946224451065063
1700822862758655500,1.070655517578125,7.208941459655762,1.7525556087493896,0.2082955539226532
1700822862768713200,1.080713134765625,7.933187484741211,1.8854337930679321,-0.3100491166114807
1700822862778751200,1.090751220703125,8.62271785736084,2.4672248363494873,1.0259153842926025
1700822862788774700,1.100774658203125,10.432733535766602,2.8790276050567627,1.7729063034057617
1700822862799030300,1.1110302734375,11.383232116699219,3.269282341003418,2.211045265197754
1700822862808886500,1.120886474609375,10.904391288757324,3.6978445053100586,2.43011474609375
1700822862818804700,1.1308046875,10.473435401916504,3.818751811981201,2.364274263381958
1700822862828865500,1.140865478515625,9.68933391571045,3.3854012489318848,1.8531121015548706
1700822862838895600,1.1508955078125,9.26795482635498,2.387019157409668,0.6380547285079956
1700822862848788000,1.1607880859375,8.941145896911621,2.1057004928588867,0.028730420395731926
1700822862858854400,1.1708544921875,8.920795440673828,1.9117701053619385,-0.3770867586135864
1700822862868918800,1.180918701171875,9.616311073303223,1.88782799243927,-0.7015010714530945
1700822862878870300,1.190870361328125,9.86650562286377,2.036268472671509,-0.727837324142456
1700822862888842800,1.2008427734375,9.336189270019531,2.276885747909546,-0.4405331015586853
1700822862898867500,1.210867431640625,9.05487060546875,2.3786394596099854,-0.2561795711517334
1700822862908881200,1.220881103515625,9.115922927856445,2.5498247146606445,-0.2585737705230713
1700822862918824700,1.23082470703125,9.006986618041992,2.522291421890259,-0.5051765441894531
1700822862928798700,1.240798828125,8.753201484680176,2.4013843536376953,-0.7469909191131592
1700822862938820400,1.2508203125,8.890868186950684,2.541445016860962,-0.6416460275650024
1700822862948824300,1.26082421875,9.094375610351562,2.382230758666992,-0.645237386226654
1700822862958802700,1.270802734375,9.016563415527344,2.139219284057617,-1.1216834783554077
1700822862968842200,1.28084228515625,8.880094528198242,1.8255788087844849,-1.7345991134643555
1700822862978865700,1.29086572265625,9.115922927856445,1.677138328552246,-2.0841526985168457
1700822862988875300,1.300875244140625,9.230844497680664,1.725022315979004,-2.056619167327881
1700822862998801700,1.3108017578125,8.700529098510742,1.9309237003326416,-1.699883222579956
1700822863008804900,1.320804931640625,8.59997272491455,1.942894697189331,-1.5191209316253662
1700822863019604000,1.33160400390625,8.434772491455078,2.1547815799713135,-1.3204022645950317
1700822863029166800,1.341166748046875,8.316259384155273,2.3319525718688965,-1.3646949529647827
1700822863039020500,1.3510205078125,8.185775756835938,2.470816135406494,-1.6543933153152466
1700822863048852200,1.360852294921875,8.110358238220215,2.674323320388794,-1.8854337930679321
1700822863058785500,1.37078564453125,9.016563415527344,2.517503023147583,-2.1116859912872314
1700822863068716300,1.38071630859375,10.38963794708252,1.9847931861877441,-2.122459888458252
1700822863078739700,1.39073974609375,10.96544361114502,1.5741876363754272,-1.900996208190918
1700822863089966300,1.40196630859375,9.793481826782227,1.8124107122421265,-1.4987702369689941
1700822863099350800,1.411350830078125,9.10993766784668,2.053027868270874,-1.5454572439193726
1700822863108996400,1.420996337890625,8.990227699279785,1.8926163911819458,-1.824381709098816
1700822863118870800,1.430870849609375,8.799888610839844,1.7956513166427612,-2.169146776199341
1700822863128815400,1.4408154296875,8.771158218383789,1.920149803161621,-2.365471363067627
1700822863138790100,1.4507900390625,8.949525833129883,2.1080946922302246,-2.1320366859436035
1700822863148768500,1.4607685546875,9.29309368133545,2.4432828426361084,-1.6508020162582397
1700822863158782200,1.4707822265625,9.064447402954102,2.451662540435791,-1.8854337930679321
1700822863168861700,1.48086181640625,8.768763542175293,2.403778553009033,-2.165555477142334
1700822863178931700,1.490931640625,8.75080680847168,2.3546974658966064,-2.1523873805999756
1700822863188908000,1.500907958984375,8.841787338256836,2.2577321529388428,-1.8770540952682495
1700822863198812400,1.5108125,9.042900085449219,2.188300371170044,-1.6903064250946045
1700822863208747300,1.520747314453125,8.844181060791016,2.5438392162323,-1.2521674633026123
1700822863218825200,1.5308251953125,8.422801971435547,2.6647465229034424,-0.8930372595787048
1700822863228826000,1.540826171875,7.825448036193848,2.5989060401916504,-0.023942016065120697
1700822863238871600,1.55087158203125,7.387309551239014,2.3582887649536133,0.6248866319656372
1700822863248917800,1.560917724609375,7.463923931121826,2.1368250846862793,0.17238251864910126
1700822863259035000,1.571034912109375,7.807491779327393,1.9512743949890137,-0.93254154920578
1700822863268878300,1.58087841796875,8.56765079498291,1.920149803161621,-1.8698714971542358
1700822863278799600,1.590799560546875,9.089587211608887,2.2852654457092285,-2.1583728790283203
1700822863288898800,1.60089892578125,9.674968719482422,2.0805611610412598,-1.7693150043487549
1700822863298943000,1.61094287109375,10.223240852355957,2.0254945755004883,-0.5315127968788147
1700822863308915500,1.62091552734375,10.281899452209473,2.103306293487549,0.4920084476470947
1700822863318887700,1.6308876953125,12.407950401306152,2.5270798206329346,1.3551181554794312
1700822863328891400,1.640891357421875,7.966706275939941,2.205059766769409,2.517503023147583
1700822863338937000,1.65093701171875,7.745242595672607,2.073378562927246,1.5047557353973389
1700822863348976000,1.66097607421875,8.221688270568848,1.941697597503662,1.1492167711257935
1700822863358924000,1.670924072265625,8.967482566833496,1.680729627609253,2.027888774871826
1700822863368924000,1.680923828125,9.445125579833984,1.698686122894287,2.676717519760132
1700822863378909400,1.690909423828125,10.793061256408691,0.5351040959358215,2.033874273300171
1700822863388894200,1.700894287109375,11.851298332214355,-0.09457096457481384,1.535880446434021
1700822863398958600,1.71095849609375,11.322179794311523,0.028730420395731926,0.6021417379379272
1700822863408968200,1.72096826171875,11.368866920471191,-0.03232172131538391,0.19273324310779572
1700822863418954800,1.730954833984375,10.63504409790039,-0.08738835901021957,0.4141969084739685
1700822863428913000,1.740912841796875,9.691728591918945,0.2932897210121155,0.9588778018951416
1700822863438867000,1.750866943359375,9.38048267364502,1.0342950820922852,1.9572598934173584
1700822863448873000,1.760873046875,9.461885452270508,1.9057846069335938,2.582146644592285
1700822863459117600,1.77111767578125,9.745597839355469,2.73537540435791,3.758896589279175
1700822863469058800,1.781058837890625,10.103530883789062,2.869450807571411,4.0569748878479
1700822863479028500,1.791028564453125,10.826580047607422,2.316390037536621,3.7026329040527344
1700822863489020700,1.801020751953125,10.820594787597656,1.7405846118927002,3.444059133529663
1700822863498982000,1.81098193359375,10.068815231323242,1.434126853942871,2.8802247047424316
1700822863509171500,1.82117138671875,9.453505516052246,1.1827356815338135,1.7741034030914307
1700822863519079700,1.83107958984375,8.899248123168945,1.2892776727676392,1.0773907899856567
1700822863529029400,1.841029296875,8.635885238647461,1.434126853942871,0.9301473498344421
1700822863539004700,1.851004638671875,8.494627952575684,2.321178436279297,1.8495208024978638
1700822863548934000,1.860933837890625,8.525752067565918,3.731363296508789,3.332728862762451
1700822863559095800,1.871095703125,8.65623664855957,4.863820552825928,3.9839515686035156
1700822863568984800,1.88098486328125,8.463502883911133,5.197812080383301,4.021061897277832
1700822863578926600,1.890926513671875,7.50582218170166,4.703409194946289,3.772064685821533
1700822863588821200,1.9008212890625,7.182605266571045,3.9899370670318604,3.227383852005005
1700822863598909700,1.91090966796875,7.225700855255127,3.5254619121551514,3.2345664501190186
1700822863608904200,1.920904296875,7.775169849395752,3.1914708614349365,3.1938650608062744
1700822863618953700,1.93095361328125,8.124723434448242,3.1004912853240967,3.1531636714935303
1700822863628843300,1.94084326171875,7.688978672027588,3.2166099548339844,3.1735143661499023
1700822863638784300,1.9507841796875,8.04691219329834,2.779668092727661,3.2082302570343018
1700822863648813000,1.96081298828125,9.910798072814941,2.321178436279297,3.671508312225342
1700822863658803500,1.970803466796875,9.014169692993164,2.6192567348480225,3.688267707824707
1700822863668910800,1.980910888671875,9.297882080078125,3.7026329040527344,3.4955344200134277
1700822863678833000,1.9908330078125,9.501389503479004,3.884592294692993,3.003525972366333
1700822863688857300,2.000857421875,8.362946510314941,3.005920171737671,2.9987375736236572
1700822863698868200,2.0108681640625,8.04691219329834,1.2737152576446533,3.2393548488616943
1700822863708880100,2.020880126953125,8.26478385925293,0.45848962664604187,3.4308910369873047
1700822863718970600,2.030970703125,7.161057472229004,0.39384618401527405,2.6240451335906982
1700822863728992800,2.04099267578125,6.501454830169678,0.3627215623855591,1.985990285873413
1700822863739001300,2.05100146484375,8.280346870422363,0.48482584953308105,3.2632968425750732
1700822863748939300,2.060939208984375,9.906009674072266,1.2880805730819702,5.452794551849365
1700822863758978000,2.07097802734375,11.569979667663574,1.3503297567367554,6.698976516723633
1700822863768976600,2.0809765625,12.362460136413574,-0.27892449498176575,5.298368453979492
1700822863778933800,2.090933837890625,10.400412559509277,-0.9217676520347595,4.55496883392334
1700822863788948500,2.100948486328125,9.659406661987305,-1.0043675899505615,3.7253777980804443
1700822863798935300,2.110935302734375,9.537302017211914,-0.8200140595436096,3.7828385829925537
1700822863809081600,2.12108154296875,9.036913871765137,-0.7481880187988281,4.655525207519531
1700822863818999800,2.130999755859375,8.209717750549316,-0.18315643072128296,6.771999359130859
1700822863828880000,2.1408798828125,7.329848289489746,-0.10893617570400238,8.42160415649414
1700822863838828000,2.150828125,5.446808815002441,-0.7936778664588928,8.256404876708984
1700822863848804900,2.160804931640625,4.511873245239258,-1.9572598934173584,6.715735912322998
1700822863858845000,2.170844970703125,5.456385612487793,-3.4548330307006836,2.7557260990142822
1700822863868922000,2.180922119140625,6.833051681518555,-3.2980127334594727,0.2753331959247589
1700822863878934500,2.1909345703125,7.643488883972168,-2.3319525718688965,1.5514427423477173
1700822863888831200,2.200831298828125,7.989450931549072,-1.1276689767837524,5.066130638122559
1700822863898808600,2.21080859375,7.86734676361084,-0.10534487664699554,8.10317611694336
1700822863909122800,2.221122802734375,7.266402244567871,0.3770867586135864,10.517727851867676
1700822863918972000,2.230971923828125,6.710947513580322,0.6500257849693298,11.57357120513916
1700822863928869400,2.240869384765625,5.74129581451416,0.30885201692581177,11.0887451171875
1700822863938815200,2.250815185546875,4.358644008636475,-1.3623007535934448,8.98543930053711
1700822863948824000,2.260823974609375,2.942473888397217,-3.532644510269165,5.937620162963867
1700822863958953500,2.270953369140625,3.906140089035034,-4.315548419952393,4.627991676330566
1700822863968920300,2.28092041015625,7.058106422424316,-1.900996208190918,6.165069580078125
1700822863978907100,2.2909072265625,8.147468566894531,1.1025298833847046,8.325836181640625
1700822863988874000,2.3008740234375,9.1446533203125,2.5546131134033203,9.120711326599121
1700822863998783000,2.310782958984375,9.860519409179688,3.177105665206909,8.343792915344238
1700822864009070000,2.321070068359375,8.78312873840332,2.1284453868865967,6.643909931182861
1700822864018931000,2.330930908203125,7.760804653167725,0.2082955539226532,4.95120906829834
1700822864028897000,2.34089697265625,6.71334171295166,-0.933738648891449,4.314351558685303
1700822864038944500,2.350944580078125,5.974730491638184,-1.2761094570159912,5.197812080383301
1700822864048937700,2.360937744140625,5.799953460693359,-1.091755986213684,6.576871871948242
1700822864059080000,2.371079833984375,5.409698963165283,-0.6979097723960876,7.702147006988525
1700822864068944000,2.38094384765625,5.0876784324646,0.41539400815963745,8.83819580078125
1700822864078896400,2.390896484375,8.26239013671875,0.6823474764823914,8.898050308227539
1700822864088899300,2.4008994140625,8.118738174438477,0.2561795711517334,7.693767070770264
1700822864098963200,2.410963134765625,7.592013359069824,-0.8978256583213806,6.523002624511719
1700822864108980500,2.42098046875,7.232883453369141,-2.1164743900299072,6.496666431427002
1700822864119212300,2.43121240234375,7.007828235626221,-2.5103204250335693,7.738059997558594
1700822864129001200,2.441001220703125,6.964732646942139,-2.5019407272338867,9.042900085449219
1700822864138896100,2.450896240234375,7.319074630737305,-2.2433669567108154,9.976638793945312
1700822864148798000,2.4607978515625,6.914454460144043,-1.4472949504852295,10.224438667297363
1700822864158783000,2.470782958984375,6.811503887176514,-0.727837324142456,9.77791976928711
1700822864168801500,2.480801513671875,7.0126166343688965,-0.5722141861915588,8.744821548461914
1700822864178821600,2.490821533203125,7.132327079772949,-0.7757213711738586,7.2987236976623535
1700822864188778000,2.500778076171875,7.228095054626465,-1.1408370733261108,6.211756229400635
1700822864198763000,2.510762939453125,7.232883453369141,-1.6424223184585571,6.147112846374512
1700822864208803600,2.520803466796875,6.672640323638916,-1.9955670833587646,6.513425827026367
1700822864218915800,2.530915771484375,5.685031890869141,-1.8602946996688843,6.661866188049316
1700822864228802300,2.54080224609375,4.813542366027832,-1.9105730056762695,6.457161903381348
1700822864238816800,2.550816650390625,3.95641827583313,-2.7988216876983643,5.415684223175049
1700822864248831200,2.560831298828125,2.934094190597534,-3.600879430770874,4.5621514320373535
1700822864258842600,2.570842529296875,2.4229321479797363,-3.5685577392578125,4.156333923339844
1700822864268893400,2.5808935546875,4.24970817565918,-3.5649664402008057,4.833893299102783
1700822864278871600,2.59087158203125,6.248866558074951,-2.9927520751953125,6.117185115814209
1700822864288895700,2.600895751953125,5.643133640289307,-2.6635494232177734,6.09204626083374
1700822864298888400,2.610888427734375,4.121618270874023,-3.114856481552124,5.507861137390137
1700822864308973800,2.620973876953125,2.1942858695983887,-3.8307228088378906,6.896498203277588
1700822864318881800,2.6308818359375,3.751713991165161,-4.4304704666137695,8.107964515686035
1700822864328907500,2.640907470703125,3.535038709640503,-5.079298973083496,8.129511833190918
1700822864338914800,2.650914794921875,0.5303156971931458,-5.239710330963135,8.485051155090332
1700822864348926500,2.660926513671875,-0.424970805644989,-5.631162166595459,9.115922927856445
1700822864358900700,2.670900634765625,-0.37469255924224854,-5.299565315246582,10.414777755737305
1700822864368883000,2.680883056640625,1.0259153842926025,-4.738125324249268,11.841721534729004
1700822864378868000,2.690867919921875,2.476801633834839,-3.892971992492676,12.518083572387695
1700822864388869400,2.700869384765625,4.373009204864502,-3.338714361190796,9.835380554199219
1700822864398855700,2.710855712890625,4.447229862213135,-3.2824504375457764,8.62391471862793
1700822864408888800,2.720888916015625,3.9372646808624268,-3.2297780513763428,8.902838706970215
1700822864418801400,2.730801513671875,3.1483752727508545,-3.8546648025512695,9.240421295166016
1700822864428995800,2.740995849609375,2.2002713680267334,-4.270058631896973,9.23682975769043
1700822864438978800,2.750978759765625,0.6033388376235962,-5.388150691986084,8.389283180236816
1700822864449001500,2.76100146484375,-0.2801215946674347,-6.0836663246154785,7.113173484802246
1700822864459059700,2.771059814453125,0.5099649429321289,-6.7923502922058105,5.825092792510986
1700822864468974800,2.780974853515625,2.4875755310058594,-6.342240333557129,6.800729751586914
1700822864478924800,2.7909248046875,2.477998733520508,-5.884947776794434,8.057685852050781
1700822864488957400,2.80095751953125,1.2701239585876465,-5.87896203994751,8.98543930053711
1700822864498913800,2.810913818359375,-0.35075053572654724,-6.270414352416992,9.428366661071777
1700822864508913400,2.820913330078125,-0.10534487664699554,-6.347028732299805,9.311050415039062
1700822864518948000,2.830947998046875,0.9900023937225342,-5.850231647491455,8.185775756835938
1700822864528911000,2.8409111328125,0.767341673374176,-4.772840976715088,7.923610687255859
1700822864538912000,2.850912109375,-0.6655880808830261,-4.20541524887085,7.225700855255127
1700822864548886500,2.860886474609375,-0.35913026332855225,-5.475539207458496,6.562506675720215
1700822864559138300,2.87113818359375,-0.3519476354122162,-5.91128396987915,7.347805023193359
1700822864569120300,2.881120361328125,-0.3280056416988373,-5.864596843719482,8.910021781921387
1700822864579027000,2.89102685546875,-0.6787561774253845,-5.549759387969971,9.840168952941895
1700822864588857600,2.900857666015625,1.0881646871566772,-4.837484359741211,11.224017143249512
1700822864599034400,2.911034423828125,1.2976573705673218,-3.7217864990234375,10.893617630004883
1700822864608865500,2.920865478515625,-0.2717418968677521,-3.649960517883301,8.900444984436035
1700822864618852900,2.930852783203125,-0.3292027413845062,-2.9448680877685547,7.748833656311035
1700822864628826400,2.940826416015625,0.22864626348018646,-2.564189910888672,7.5632829666137695
1700822864638811600,2.950811767578125,-0.1975216418504715,-4.4508209228515625,6.172252178192139
1700822864649593900,2.96159375,1.0103530883789062,-5.793968200683594,5.686229228973389
1700822864659216400,2.97121630859375,2.167949676513672,-6.13633918762207,6.331466197967529
1700822864669097700,2.98109765625,2.737769603729248,-5.740098476409912,7.412448406219482
1700822864678978300,2.990978271484375,0.4297592043876648,-5.254075527191162,9.320627212524414
1700822864689008600,3.001008544921875,-2.38462495803833,-4.334702014923096,11.480196952819824
1700822864698952400,3.010952392578125,1.5957354307174683,-3.912125587463379,11.42872142791748
1700822864708844300,3.02084423828125,1.136048674583435,-4.244919776916504,10.415974617004395
1700822864718865700,3.03086572265625,-0.3603273630142212,-5.251681327819824,8.01339340209961
1700822864728813300,3.040813232421875,0.7793126702308655,-5.057751178741455,7.03057336807251
1700822864738834700,3.050834716796875,1.600523829460144,-4.496310710906982,6.829460144042969
1700822864748796400,3.06079638671875,1.6891093254089355,-5.583278179168701,6.418854713439941
1700822864758802700,3.070802734375,0.026336219161748886,-7.181407928466797,4.790797710418701
1700822864768852200,3.080852294921875,0.38905778527259827,-8.072051048278809,5.097255229949951
1700822864778823200,3.0908232421875,1.05105459690094,-6.824671745300293,8.31985092163086
1700822864788929000,3.100928955078125,1.1312602758407593,-6.651092529296875,10.291476249694824
1700822864798863000,3.110863037109375,-0.8882488012313843,-6.576871871948242,11.197681427001953
1700822864808771000,3.12077099609375,-1.5729905366897583,-6.617573261260986,10.378864288330078
1700822864818833400,3.13083349609375,-0.6392518281936646,-7.274781703948975,9.336189270019531
1700822864829155800,3.14115576171875,0.4489128291606903,-7.858967304229736,7.916428089141846
1700822864839219500,3.151219482421875,0.8271966576576233,-7.249642848968506,6.995857238769531
1700822864848919300,3.160919189453125,1.1540051698684692,-7.0593037605285645,6.22731876373291
1700822864858855700,3.170855712890625,1.7405846118927002,-6.098031520843506,6.76002836227417
1700822864868873200,3.180873291015625,1.581370234489441,-5.931634902954102,7.906851291656494
1700822864878836700,3.190836669921875,0.689530074596405,-5.582081317901611,9.491812705993652
1700822864888797400,3.20079736328125,-0.3076549172401428,-5.944802761077881,10.000580787658691
1700822864898821000,3.210821044921875,-0.7003039717674255,-6.588842868804932,9.102754592895508
1700822864908825600,3.22082568359375,0.1041477769613266,-6.379350662231445,8.054094314575195
1700822864918945300,3.2309453125,1.2988544702529907,-5.985504150390625,7.271190643310547
1700822864928792600,3.24079248046875,1.9919757843017578,-5.892130374908447,6.873753070831299
1700822864938782200,3.2507822265625,1.6627731323242188,-5.4480061531066895,7.292738437652588
1700822864948759600,3.260759521484375,1.843535304069519,-5.837063789367676,7.3693528175354
1700822864958801400,3.270801513671875,2.2804770469665527,-6.05852746963501,7.363367557525635
1700822864968826600,3.28082666015625,2.1787235736846924,-5.989095687866211,7.350199222564697
1700822864978854000,3.29085400390625,0.2944868206977844,-6.027402877807617,7.724891662597656
1700822864988885500,3.300885498046875,-0.7493851184844971,-5.961562156677246,8.327033042907715
1700822864998898200,3.310898193359375,-0.20231004059314728,-6.010643482208252,8.825027465820312
1700822865008967700,3.3209677734375,1.5610195398330688,-6.3518171310424805,8.450334548950195
1700822865018844000,3.330843994140625,0.5410895943641663,-5.367800235748291,9.027337074279785
1700822865028929800,3.3409296875,0.6931213736534119,-3.9001545906066895,9.853337287902832
1700822865039420000,3.351419921875,-1.1743559837341309,-2.0805611610412598,11.73398208618164
1700822865049143000,3.36114306640625,-1.4460978507995605,-2.4241292476654053,13.73314094543457
1700822865059553000,3.371552978515625,0.33758243918418884,-3.4835634231567383,14.05994987487793
1700822865069132500,3.381132568359375,-1.6747441291809082,-7.047332763671875,2.182314872741699
1700822865079047700,3.391047607421875,-0.2968810200691223,-9.643844604492188,-6.300341606140137
1700822865089497900,3.401497802734375,13.255497932434082,-6.238092422485352,3.824737310409546
1700822865099134000,3.411134033203125,5.270834922790527,-3.599682331085205,8.027758598327637
1700822865109064400,3.421064453125,-3.0310592651367188,-3.7193922996520996,7.5201873779296875
1700822865118960600,3.430960693359375,-2.608482837677002,-3.7924153804779053,7.892486095428467
1700822865128918300,3.440918212890625,-0.2669534981250763,-3.7900211811065674,9.129091262817383
1700822865138936600,3.4509365234375,1.4401123523712158,-4.042609691619873,9.848548889160156
1700822865148930800,3.460930908203125,1.5729905366897583,-4.7369279861450195,9.84256362915039
1700822865159070000,3.471070068359375,0.8858546018600464,-5.728127479553223,9.273940086364746
1700822865168964400,3.48096435546875,0.3363853394985199,-6.777985095977783,8.53532886505127
1700822865178829300,3.490829345703125,0.1759738177061081,-7.8745293617248535,7.873332500457764
1700822865189182700,3.5011826171875,-0.05746084079146385,-8.7268648147583,7.575253963470459
1700822865198936300,3.510936279296875,-0.6835445761680603,-9.209297180175781,7.599195957183838
1700822865208792600,3.52079248046875,-1.2497732639312744,-9.261969566345215,7.636306285858154
1700822865218805800,3.5308056640625,-1.7980455160140991,-7.352593421936035,7.979874134063721
1700822865228801000,3.540801025390625,-0.23104046285152435,-6.206967830657959,8.110358238220215
1700822865238819000,3.550819091796875,0.9062053561210632,-5.856217384338379,7.33703088760376
1700822865248850000,3.560849853515625,0.5518634915351868,-5.706579685211182,6.833051681518555
1700822865258818600,3.570818603515625,-0.363918662071228,-5.917269706726074,6.811503887176514
1700822865268804900,3.580804931640625,-1.2234370708465576,-6.257246017456055,7.331045627593994
1700822865278806300,3.59080615234375,-1.5406688451766968,-6.689399719238281,7.818265438079834
1700822865288845300,3.60084521484375,-1.3850456476211548,-6.860584735870361,8.08162784576416
1700822865298846200,3.61084619140625,-0.790086567401886,-6.797138690948486,7.872135162353516
1700822865308918500,3.62091845703125,-0.26815059781074524,-6.584054470062256,7.589619159698486
1700822865318950700,3.63095068359375,-0.3734954595565796,-6.171054840087891,7.122750282287598
1700822865328827400,3.640827392578125,-0.7589619159698486,-6.235698223114014,7.115567684173584
1700822865338844200,3.65084423828125,-0.9624691009521484,-6.376956462860107,7.206547260284424
1700822865348918500,3.66091845703125,-0.9516952037811279,-6.496666431427002,7.38132381439209
1700822865358942700,3.670942626953125,-0.8032546639442444,-6.570886611938477,7.602787494659424
1700822865368875000,3.680875,-0.6272808313369751,-6.604405403137207,7.723694801330566
1700822865378914600,3.69091455078125,-0.507570743560791,-6.4846954345703125,7.808688640594482
1700822865389043700,3.701043701171875,-0.48961424827575684,-6.279991149902344,7.787140846252441
1700822865399016000,3.711015869140625,-0.5530605912208557,-6.078877925872803,7.6111674308776855
1700822865408941300,3.72094140625,-0.669179379940033,-5.918466567993164,7.486668586730957
1700822865418841600,3.730841552734375,-0.7350199222564697,-5.889736175537109,7.569268703460693
1700822865428798500,3.740798583984375,-0.7194576263427734,-5.996278285980225,7.803900241851807
1700822865438934800,3.750934814453125,-0.706289529800415,-6.112396717071533,8.063671112060547
1700822865448934400,3.760934326171875,-0.48722004890441895,-6.245275020599365,8.192957878112793
1700822865458962700,3.770962646484375,-0.363918662071228,-6.206967830657959,8.329427719116211
1700822865468968400,3.780968505859375,-0.19273324310779572,-6.1949968338012695,8.110358238220215
1700822865478856200,3.790856201171875,-0.181959331035614,-5.96874475479126,7.8745293617248535
1700822865488827100,3.8008271484375,-0.16400282084941864,-5.773617267608643,7.722497463226318
1700822865498781000,3.810781005859375,-0.20949265360832214,-5.718550682067871,7.6351094245910645
1700822865508883000,3.820883056640625,-0.4728548228740692,-5.674258232116699,7.716512203216553
1700822865518877400,3.83087744140625,-0.6200982332229614,-5.7975592613220215,7.7643961906433105
1700822865528878800,3.84087890625,-0.5805938839912415,-6.039373874664307,7.740454196929932
1700822865538830800,3.850830810546875,-0.5339069962501526,-6.141127586364746,7.7428483963012695
1700822865548740400,3.860740234375,-0.4537012279033661,-6.142324447631836,7.745242595672607
1700822865558721300,3.87072119140625,-0.33279404044151306,-6.1734490394592285,7.620744228363037
1700822865568661000,3.880660888671875,-0.20231004059314728,-6.175843238830566,7.530961513519287
1700822865578666500,3.89066650390625,-0.20470423996448517,-6.138733386993408,7.469909191131592
1700822865588664300,3.900664306640625,-0.43335050344467163,-6.09204626083374,7.331045627593994
1700822865598726100,3.91072607421875,-0.628477931022644,-6.045359134674072,7.360973358154297
1700822865608718600,3.920718505859375,-0.7158663272857666,-6.089652061462402,7.480683326721191
1700822865618783200,3.930783203125,-0.5937620401382446,-6.209362030029297,7.599195957183838
1700822865628822000,3.940822021484375,-0.2645592987537384,-6.350619792938232,7.69735860824585
1700822865638780700,3.95078076171875,-0.1735796183347702,-6.329071998596191,7.654263019561768
1700822865648827000,3.960826904296875,-0.24899697303771973,-6.233304023742676,7.645883083343506
1700822865658801400,3.970801513671875,-0.35913026332855225,-6.13633918762207,7.592013359069824
1700822865668756200,3.980756103515625,-0.44532153010368347,-6.045359134674072,7.673416614532471
1700822865678769200,3.99076904296875,-1.215057373046875,-4.790797710418701,7.3669586181640625
1700822865688770000,4.00077001953125,-0.02992752194404602,-4.492719650268555,7.252037048339844
1700822865698779100,4.010779052734375,0.22505496442317963,-4.626794815063477,7.90086555480957
1700822865708789000,4.0207890625,-0.6093243360519409,-4.997896194458008,8.123526573181152
1700822865718845000,4.030844970703125,-0.4213795065879822,-5.430049419403076,8.088809967041016
1700822865728849000,4.040848876953125,0.13168109953403473,-5.991489887237549,7.95832633972168
1700822865738841000,4.050841064453125,-0.07422025501728058,-6.1303534507751465,7.881711959838867
1700822865748906500,4.060906494140625,-0.5434837937355042,-5.637147903442383,7.858967304229736
1700822865758934300,4.070934326171875,-1.3694833517074585,-4.739322185516357,7.782352447509766
1700822865768900000,4.080900146484375,-2.009932279586792,-4.271255970001221,7.4998369216918945
1700822865778856400,4.0908564453125,-1.7944542169570923,-4.326322555541992,7.376535415649414
1700822865788785000,4.100784912109375,-1.279700756072998,-4.3406877517700195,7.778761386871338
1700822865798801000,4.11080078125,-0.6667851805686951,-5.045780181884766,8.20732307434082
1700822865808813600,4.1208134765625,0.36152446269989014,-6.380547523498535,8.337807655334473
1700822865818896100,4.130896240234375,0.7589619159698486,-7.949946880340576,8.039729118347168
1700822865828949000,4.140948974609375,1.1623848676681519,-8.455122947692871,7.972691535949707
1700822865838847000,4.150846923828125,0.828393816947937,-7.63989782333374,8.20732307434082
1700822865848858600,4.160858642578125,-0.1364694982767105,-5.882553577423096,8.398859977722168
1700822865858878200,4.170878173828125,-1.3730746507644653,-4.222174644470215,8.220491409301758
1700822865868850200,4.18085009765625,-1.778891921043396,-3.09689998626709,7.779958248138428
1700822865878830000,4.190830078125,-1.5143325328826904,-2.677914619445801,7.457938194274902
1700822865889131500,4.201131591796875,-1.4269442558288574,-3.1232361793518066,7.260416507720947
1700822865898967300,4.21096728515625,-1.2054805755615234,-4.3406877517700195,7.1239471435546875
1700822865908959200,4.220959228515625,-0.5746083855628967,-5.975927352905273,6.892906665802002
1700822865918945500,4.230945556640625,-0.038307227194309235,-8.060079574584961,6.613982200622559
1700822865928972800,4.240972900390625,0.7170634269714355,-9.592369079589844,6.613982200622559
1700822865938883800,4.2508837890625,0.7266402244567871,-8.276755332946777,8.368931770324707
1700822865948817400,4.2608173828125,-0.19393034279346466,-6.997054576873779,9.005789756774902
1700822865958798300,4.27079833984375,0.43335050344467163,-5.404910564422607,9.165003776550293
1700822865968794000,4.280794189453125,0.4728548228740692,-3.3243491649627686,9.862914085388184
1700822865978795000,4.290794921875,-0.365115761756897,-4.001908302307129,9.569623947143555
1700822865988790000,4.3007900390625,-0.7709329724311829,-6.056133270263672,8.833407402038574
1700822865998850000,4.31085009765625,-0.3711012601852417,-7.044938564300537,8.741230010986328
1700822866008888000,4.32088818359375,-0.02274491637945175,-8.265981674194336,8.419210433959961
1700822866018921500,4.33092138671875,1.3000515699386597,-8.918401718139648,7.615955829620361
1700822866028839700,4.340839599609375,2.718616008758545,-7.937975883483887,6.953958988189697
1700822866038848000,4.350847900390625,1.8579005002975464,-6.095637321472168,7.29034423828125
1700822866048908000,4.360907958984375,-1.4329297542572021,-3.8498764038085938,9.221267700195312
1700822866058797600,4.370797607421875,-2.608482837677002,-3.0633809566497803,10.199298858642578
1700822866068818200,4.380818115234375,-2.4839842319488525,-5.594052314758301,8.221688270568848
1700822866078823700,4.39082373046875,-1.6400281190872192,-7.597999095916748,6.337451934814453
1700822866088779300,4.400779296875,-1.0690110921859741,-8.039729118347168,5.762843608856201
1700822866098842000,4.410842041015625,-1.2234370708465576,-7.511807918548584,6.412869453430176
1700822866108974000,4.42097412109375,-1.624465823173523,-6.145915985107422,7.802703380584717
1700822866118939100,4.430939208984375,-2.292448043823242,-5.420472621917725,8.864531517028809
1700822866128822500,4.440822509765625,-2.382230758666992,-5.2014031410217285,9.272743225097656
1700822866138853600,4.450853515625,-1.8579005002975464,-4.717774391174316,9.19972038269043
1700822866148844300,4.46084423828125,-1.159990668296814,-4.7620673179626465,8.859743118286133
1700822866158773800,4.470773681640625,-0.8427590131759644,-4.934449672698975,8.841787338256836
1700822866168864800,4.48086474609375,0.11851298063993454,-5.2014031410217285,8.641871452331543
1700822866178847500,4.490847412109375,1.7178397178649902,-5.323507308959961,8.559270858764648
1700822866188876800,4.500876708984375,3.2094273567199707,-5.310339450836182,8.452729225158691
1700822866198871300,4.510871337890625,4.2760443687438965,-4.576516628265381,8.875306129455566
1700822866209460700,4.521460693359375,2.7449522018432617,-4.218583583831787,9.283516883850098
1700822866219185000,4.531184814453125,-0.021547814831137657,-4.0761284828186035,9.157821655273438
1700822866229145300,4.541145263671875,-2.29484224319458,-3.6954503059387207,8.65623664855957
1700822866238989300,4.5509892578125,-2.985569477081299,-2.7748796939849854,8.214506149291992
1700822866248831000,4.5608310546875,-3.1699230670928955,-1.2749123573303223,8.40963363647461
1700822866258764000,4.570763916015625,-2.493561029434204,-1.768117904663086,8.012195587158203
1700822866268803000,4.580802978515625,-0.43095630407333374,-4.442441463470459,7.714118003845215
1700822866278866000,4.590865966796875,0.3770867586135864,-6.466738700866699,8.310274124145508
1700822866288782600,4.600782470703125,0.29209262132644653,-6.575675010681152,9.522936820983887
1700822866298728200,4.610728271484375,0.7661445140838623,-5.080495834350586,10.78468132019043
1700822866308763100,4.62076318359375,-0.015562310814857483,-4.140771865844727,11.21204662322998
1700822866318696000,4.630696044921875,-1.0845733880996704,-3.780444383621216,11.049241065979004
1700822866328715500,4.640715576171875,-1.7381904125213623,-4.126406669616699,10.505757331848145
1700822866338731800,4.650731689453125,-0.5937620401382446,-5.744886875152588,7.851784706115723
1700822866348740900,4.660740966796875,3.861847400665283,-3.1459810733795166,6.716932773590088
1700822866358751000,4.6707509765625,1.6280571222305298,-2.692279815673828,6.200982570648193
1700822866368759600,4.680759521484375,-1.0426748991012573,-2.9460651874542236,5.845443248748779
1700822866378806300,4.69080615234375,-0.39384618401527405,-3.75291109085083,6.332663536071777
1700822866388805600,4.7008056640625,1.3778630495071411,-4.768052577972412,7.929595947265625
1700822866398857200,4.710857177734375,1.1013327836990356,-6.393715858459473,9.660603523254395
1700822866408850200,4.72085009765625,-0.5829881429672241,-6.842628479003906,11.423933029174805
1700822866418864600,4.73086474609375,-2.2601263523101807,-4.714183330535889,12.707225799560547
1700822866428761900,4.740761962890625,-3.207033157348633,-4.2724528312683105,12.077550888061523
1700822866438838300,4.75083837890625,-3.264493942260742,-3.529053211212158,10.937910079956055
1700822866448816600,4.760816650390625,-3.163937568664551,-3.2620997428894043,9.77672290802002
1700822866458751000,4.7707509765625,-2.2912509441375732,-3.178302764892578,8.848969459533691
1700822866468697300,4.780697265625,-1.1456254720687866,-3.3004069328308105,8.29710578918457
1700822866478801700,4.7908017578125,0.05506663769483566,-3.1244332790374756,8.277952194213867
1700822866488780800,4.80078076171875,-0.17836803197860718,-1.9536685943603516,8.710105895996094
1700822866498801400,4.810801513671875,-1.5286977291107178,-1.5490485429763794,8.913613319396973
1700822866508737300,4.8207373046875,-2.469619035720825,-2.1595699787139893,9.264363288879395
1700822866519755000,4.831755126953125,-3.050212860107422,-6.269217014312744,8.645462036132812
1700822866529260500,4.841260498046875,-3.050212860107422,-6.269217014312744,8.645462036132812
1700822866539016200,4.85101611328125,-2.653972625732422,-5.720944881439209,8.586804389953613
1700822866548905700,4.86090576171875,-3.027467966079712,-5.130774021148682,9.117119789123535
1700822866558824700,4.87082470703125,-2.6013002395629883,-4.116829872131348,10.035296440124512
1700822866568931300,4.880931396484375,-2.0829553604125977,-1.6615760326385498,11.133037567138672
1700822866578827800,4.890827880859375,-2.3020248413085938,-1.7848774194717407,10.678139686584473
1700822866588876800,4.900876708984375,-1.9596540927886963,-2.7521347999572754,8.927978515625
1700822866598884900,4.910884765625,-1.4209587574005127,-3.7924153804779053,7.800309181213379
1700822866608789000,4.9207890625,0.035913024097681046,-5.170278549194336,7.074865818023682
1700822866619033900,4.931033935546875,2.2912509441375732,-4.569334030151367,7.315483093261719
1700822866628945400,4.9409453125,2.9676129817962646,-2.4444799423217773,8.619126319885254
1700822866638814200,4.950814208984375,0.9265560507774353,-1.7501614093780518,9.668983459472656
1700822866648881700,4.960881591796875,-0.2322375625371933,-1.0235211849212646,10.018536567687988
1700822866658936300,4.970936279296875,-1.8974047899246216,-1.037886381149292,10.322600364685059
1700822866668968200,4.98096826171875,-2.8455088138580322,-2.205059766769409,10.099940299987793
1700822866678934500,4.9909345703125,-2.874239206314087,-2.2685060501098633,9.965864181518555
1700822866688909800,5.000909912109375,-3.1028854846954346,-2.0817582607269287,9.660603523254395
1700822866698869000,5.010868896484375,-2.846705913543701,-1.944091796875,9.458293914794922
1700822866708941000,5.020941162109375,-2.1068975925445557,-3.1483752727508545,9.21288776397705
1700822866719055400,5.031055419921875,-0.6991068720817566,-3.2585084438323975,9.467870712280273
1700822866728920800,5.0409208984375,-0.28730419278144836,-2.3475148677825928,10.133459091186523
1700822866738912300,5.050912353515625,-0.8930372595787048,-0.9038111567497253,10.886435508728027
1700822866748902100,5.060902099609375,-1.0450690984725952,-0.0802057534456253,10.96424674987793
1700822866758897200,5.070897216796875,-1.0055646896362305,-0.15083470940589905,10.51174259185791
1700822866768900600,5.080900634765625,-1.3108254671096802,-0.017956512048840523,10.211270332336426
1700822866778960400,5.09096044921875,-2.2002713680267334,-0.5315127968788147,9.746794700622559
1700822866788911000,5.1009111328125,-2.2589292526245117,-1.0402805805206299,9.284713745117188
1700822866798898700,5.110898681640625,-1.8519150018692017,-1.4449007511138916,9.257181167602539
1700822866808854800,5.120854736328125,-1.9800047874450684,-1.2653355598449707,9.532513618469238
1700822866820713000,5.132712890625,-2.3487119674682617,-0.38307225704193115,10.257957458496094
1700822866829849300,5.141849365234375,-2.8646624088287354,-0.43933600187301636,11.162965774536133
1700822866839424300,5.15142431640625,-2.82515811920166,-0.7386112213134766,11.705251693725586
1700822866849124600,5.16112451171875,-2.316390037536621,-0.7374141216278076,11.826159477233887
1700822866858934800,5.170934814453125,-1.091755986213684,-0.5494692921638489,11.522095680236816
1700822866868878300,5.18087841796875,-0.2968810200691223,-0.7972691655158997,10.990582466125488
1700822866878871300,5.190871337890625,-0.11372458189725876,-1.380257248878479,10.283096313476562
1700822866888837000,5.200837158203125,-1.2533645629882812,-1.7836803197860718,9.799467086791992
1700822866898839000,5.210839111328125,-1.0259153842926025,-1.2006921768188477,9.148244857788086
1700822866908821000,5.220821044921875,-0.8020575642585754,-0.15682020783424377,8.738836288452148
1700822866918763500,5.230763427734375,-1.5646108388900757,-0.41539400815963745,8.107964515686035
1700822866928750800,5.240750732421875,-2.4025814533233643,-0.3998316824436188,8.14028549194336
1700822866938705000,5.250704833984375,-1.7130513191223145,-0.5159504413604736,8.195352554321289
1700822866948663000,5.2606630859375,-0.7170634269714355,0.05386953800916672,8.585607528686523
1700822866958754600,5.270754638671875,-0.25019407272338867,0.9540894031524658,9.14345645904541
1700822866968769800,5.280769775390625,-0.02992752194404602,1.92134690284729,10.023324966430664
1700822866978824000,5.290823974609375,-0.019153613597154617,2.428917646408081,10.918756484985352
1700822866988834800,5.300834716796875,-0.645237386226654,2.5701754093170166,11.763910293579102
1700822866998859500,5.310859619140625,-1.6101006269454956,1.823184609413147,12.048820495605469
1700822867008884200,5.32088427734375,-2.1068975925445557,1.2892776727676392,11.882423400878906
1700822867018922200,5.330922119140625,-2.804807186126709,0.7218518257141113,11.0300874710083
1700822867028923100,5.340923095703125,-3.971980571746826,0.24779987335205078,9.786299705505371
1700822867038892500,5.350892578125,-4.061763286590576,0.05506663769483566,8.271966934204102
1700822867048831700,5.360831787109375,-4.120420932769775,0.4465186297893524,7.47110652923584
1700822867058869800,5.370869873046875,-3.3482911586761475,0.6967126727104187,7.508216381072998
1700822867068918000,5.38091796875,-2.40736985206604,0.5027823448181152,8.095993041992188
1700822867078908400,5.390908447265625,0.014365210197865963,0.22505496442317963,8.309077262878418
1700822867088897800,5.400897705078125,1.8351556062698364,0.6428431272506714,8.671798706054688
1700822867098901800,5.41090185546875,3.159149169921875,1.3551181554794312,8.845377922058105
1700822867108916000,5.420916015625,3.5865142345428467,1.0785878896713257,9.05247688293457
1700822867118792400,5.43079248046875,2.9005753993988037,0.32441434264183044,9.297882080078125
1700822867128765700,5.440765625,0.35075053572654724,0.304063618183136,9.153033256530762
1700822867138793000,5.45079296875,-0.6584054827690125,0.7026981711387634,8.699332237243652
1700822867148862000,5.460862060546875,-1.7537527084350586,0.9038111567497253,8.565256118774414
1700822867158928000,5.470927978515625,-2.4025814533233643,0.9241618514060974,8.653841972351074
1700822867168892400,5.480892333984375,-2.4408886432647705,0.7972691655158997,8.899248123168945
1700822867178912300,5.490912353515625,-1.3898340463638306,0.31603461503982544,9.527725219726562
1700822867188876500,5.50087646484375,-0.768538773059845,0.9481038451194763,9.379284858703613
1700822867198909700,5.51090966796875,-0.15322890877723694,0.9361328482627869,9.273940086364746
1700822867208976000,5.520975830078125,-0.15322890877723694,0.16160862147808075,9.014169692993164
1700822867218912000,5.530912109375,-0.45010992884635925,-1.0007762908935547,8.257601737976074
1700822867228942600,5.540942626953125,-0.8954314589500427,-1.945288896560669,7.558494567871094
1700822867238884400,5.55088427734375,-0.849941611289978,-2.1942858695983887,6.9695210456848145
1700822867248929500,5.560929443359375,-0.5410895943641663,-2.5510218143463135,6.27400541305542
1700822867258946300,5.5709462890625,-0.3148375153541565,-3.671508312225342,4.909310817718506
1700822867268849200,5.58084912109375,-0.7410054206848145,-4.0569748878479,4.135983467102051
1700822867278756000,5.590756103515625,-1.2294225692749023,-3.9240965843200684,4.243722438812256
1700822867290900000,5.60289990234375,-1.3934253454208374,-3.9157168865203857,5.239710330963135
1700822867308802000,5.620802001953125,-0.7805097699165344,-3.1902737617492676,7.111976146697998
1700822867319960000,5.6319599609375,-0.19632454216480255,-1.923741102218628,10.010157585144043
1700822867329105000,5.64110498046875,-0.05267243832349777,-0.03711012750864029,13.126211166381836
1700822867338653000,5.65065283203125,-0.5554547905921936,0.9756371974945068,16.209941864013672
1700822867348643000,5.66064306640625,-1.3239935636520386,0.6129156351089478,18.237831115722656
1700822867358665000,5.6706650390625,-2.146401882171631,-0.7350199222564697,18.051084518432617
1700822867368690000,5.68068994140625,-3.1100680828094482,-2.005143880844116,16.47809410095215
1700822867379422000,5.691421875,-3.6511576175689697,-2.73537540435791,14.195221900939941
1700822867388603000,5.700602783203125,-3.7481226921081543,-2.5091233253479004,12.0021333694458
1700822867398605000,5.71060498046875,-2.75812029838562,-2.1128830909729004,10.321403503417969
1700822867408882000,5.7208818359375,-0.9576807022094727,-1.358709454536438,9.488221168518066
1700822867418659000,5.7306591796875,0.24181437492370605,-0.5578489899635315,9.23682975769043
1700822867428714000,5.7407138671875,0.4812345504760742,-0.547075092792511,9.421183586120605
1700822867438744000,5.750744140625,0.5446808934211731,-1.380257248878479,9.549273490905762
1700822867448722000,5.760721923828125,0.24899697303771973,-2.098517894744873,9.730035781860352
1700822867458759000,5.770759033203125,-0.4728548228740692,-2.6216509342193604,9.974244117736816
1700822867468777000,5.78077685546875,-1.280897855758667,-3.203441858291626,10.120290756225586
1700822867478754000,5.790754150390625,-1.922544002532959,-3.4177229404449463,10.327388763427734
1700822867488680000,5.800679931640625,-1.5646108388900757,-3.3423056602478027,10.346542358398438
1700822867498766000,5.81076611328125,-0.5734112858772278,-3.137601375579834,10.14782428741455
1700822867508760000,5.820760009765625,-1.50355863571167,-1.0881646871566772,10.462661743164062
1700822867518788000,5.8307880859375,-2.6420016288757324,-2.5103204250335693,9.526528358459473
1700822867528804000,5.84080419921875,-2.337938070297241,-3.5661635398864746,9.070432662963867
1700822867538843000,5.8508427734375,-0.7481880187988281,-3.251325845718384,8.432378768920898
1700822867548855000,5.86085498046875,2.053027868270874,-3.751713991165161,7.280767440795898
1700822867558837000,5.8708369140625,4.174290657043457,-2.7664999961853027,6.147112846374512
1700822867568668000,5.88066796875,0.9085995554924011,-1.1252747774124146,6.27280855178833
1700822867578948000,5.890947998046875,-4.107253074645996,0.7026981711387634,8.524555206298828
1700822867588962000,5.900962158203125,-4.4508209228515625,1.923741102218628,11.75792407989502
1700822867598704000,5.9107041015625,-3.3937809467315674,1.7357962131500244,14.702792167663574
1700822867608806000,5.920805908203125,-1.3012486696243286,0.0071826050989329815,13.784616470336914
1700822867618814000,5.93081396484375,1.3491326570510864,-2.008735179901123,10.84094524383545
1700822867628807000,5.940806884765625,1.624465823173523,-3.5266590118408203,8.556877136230469
1700822867639056000,5.951055908203125,0.8307880163192749,-3.2992098331451416,7.696161270141602
1700822867649353000,5.96135302734375,-0.5171475410461426,-2.764105796813965,7.864952564239502
1700822867658844000,5.970843994140625,-1.0857704877853394,-3.0561983585357666,8.640673637390137
1700822867668784000,5.9807841796875,-0.5662286877632141,-1.3623007535934448,10.408791542053223
1700822867679486000,5.99148583984375,-1.192312479019165,-0.5267243981361389,10.849325180053711
1700822867688834000,6.000833984375,-1.4951789379119873,-0.47884035110473633,10.607510566711426
1700822867698877000,6.010876953125,-1.0259153842926025,-0.9852139949798584,9.780313491821289
1700822867708788000,6.0207880859375,-0.6356605291366577,-1.533486247062683,9.036913871765137
1700822867718921000,6.0309208984375,-0.3447650372982025,-2.1715409755706787,8.394071578979492
1700822867728923000,6.0409228515625,-0.4273650050163269,-2.3942017555236816,8.258798599243164
1700822867739210000,6.0512099609375,-0.424970805644989,-2.4384944438934326,8.719682693481445
1700822867748770000,6.06077001953125,-0.29807811975479126,-2.6360161304473877,9.518148422241211
1700822867758939000,6.07093896484375,-1.1025298833847046,-2.1116859912872314,10.85171890258789
1700822867768916000,6.080916015625,-2.126051187515259,-1.9153614044189453,11.961431503295898
1700822867778873000,6.090873046875,0.1999158412218094,-2.580949544906616,10.618284225463867
1700822867788792000,6.1007919921875,1.2521674633026123,-3.621230125427246,9.634267807006836
1700822867798687000,6.11068701171875,0.39624038338661194,-3.205836057662964,9.396044731140137
1700822867808793000,6.12079296875,-0.730231523513794,-2.2397756576538086,9.196128845214844
1700822867819081000,6.1310810546875,-1.0091559886932373,-0.8331822156906128,9.340977668762207
1700822867828864000,6.140864013671875,-1.0307037830352783,-0.33997663855552673,9.800664901733398
1700822867838808000,6.15080810546875,-0.9828197956085205,-0.11133038252592087,10.498574256896973
1700822867848815000,6.160815185546875,-0.7003039717674255,-0.3411737382411957,10.66018295288086
1700822867858802000,6.170802001953125,-0.3603273630142212,-1.0235211849212646,10.158597946166992
1700822867868924000,6.180923828125,-0.22744916379451752,-1.556231141090393,9.569623947143555
1700822867878969000,6.190968994140625,-0.35913026332855225,-1.820790410041809,8.980650901794434
1700822867888931000,6.20093115234375,-0.4297592043876648,-2.318784236907959,8.40963363647461
1700822867899032000,6.211031982421875,-0.568622887134552,-2.6850972175598145,8.371326446533203
1700822867908902000,6.22090185546875,-0.9169792532920837,-2.0027496814727783,9.095572471618652
1700822867918897000,6.23089697265625,-1.5622166395187378,-1.434126853942871,10.020931243896484
1700822867928945000,6.24094482421875,-1.8770540952682495,-0.7553706169128418,10.888829231262207
1700822867938948000,6.250947998046875,-1.292868971824646,-0.6153098344802856,11.127052307128906
1700822867948776000,6.26077587890625,-1.2114660739898682,-1.4963760375976562,10.395624160766602
1700822867958609000,6.27060888671875,-0.13407529890537262,0.2849099934101105,10.645817756652832
1700822867968790000,6.2807900390625,0.49559974670410156,0.768538773059845,10.17416000366211
1700822867978885000,6.290885009765625,0.26336219906806946,0.4345476031303406,10.044873237609863
1700822867988870000,6.300869873046875,-0.5135562419891357,0.7410054206848145,10.709263801574707
1700822867998832000,6.31083203125,-1.2545616626739502,-0.05626374110579491,11.987768173217773
1700822868008900000,6.320900146484375,-1.7848774194717407,-0.35075053572654724,12.835315704345703
1700822868018908000,6.330907958984375,-2.582146644592285,-0.1735796183347702,12.4785795211792
1700822868028940000,6.34093994140625,-2.1057004928588867,-0.4189853072166443,9.830592155456543
1700822868038900000,6.35089990234375,-2.4576480388641357,-0.1975216418504715,6.886921405792236
1700822868048859000,6.36085888671875,-3.1759085655212402,0.12090718746185303,5.044582843780518
1700822868058868000,6.370867919921875,-1.4652514457702637,-0.8595184087753296,4.262876033782959
1700822868068876000,6.3808759765625,-0.45010992884635925,-1.3024457693099976,5.021838188171387
1700822868078988000,6.390988037109375,-0.8798691034317017,-0.9792284965515137,6.22731876373291
1700822868088719000,6.400718994140625,-1.845929503440857,-1.2521674633026123,7.219715118408203
1700822868098828000,6.410828125,-3.5960910320281982,0.5279214978218079,8.239645004272461
1700822868108755000,6.4207548828125,-5.1583075523376465,0.44412440061569214,8.914810180664062
1700822868118859000,6.43085888671875,-3.6320040225982666,-1.192312479019165,8.413225173950195
1700822868128785000,6.440784912109375,-4.953603267669678,-2.876633405685425,11.906365394592285
1700822868138601000,6.45060107421875,-0.872686505317688,-4.86142635345459,14.506467819213867
1700822868148755000,6.4607548828125,5.916072368621826,-7.782352447509766,14.534001350402832
1700822868158776000,6.470776123046875,2.7246015071868896,-3.4536359310150146,11.48378849029541
1700822868168756000,6.480755859375,-3.512293815612793,1.644816517829895,9.281123161315918
1700822868179159000,6.491158935546875,-4.529829502105713,0.6847416758537292,9.058462142944336
1700822868188750000,6.50075,-3.8522706031799316,-1.335964560508728,9.396044731140137
1700822868198798000,6.510798095703125,-3.445256233215332,-2.164358377456665,9.677363395690918
1700822868208795000,6.520794921875,-3.378218650817871,-2.1966800689697266,9.405621528625488
1700822868218807000,6.53080712890625,-2.497152328491211,-2.5091233253479004,9.370905876159668
1700822868228833000,6.5408330078125,-1.6065093278884888,-2.9735984802246094,9.640253067016602
1700822868238924000,6.550924072265625,-1.8734627962112427,-2.1057004928588867,9.263166427612305
1700822868248818000,6.56081787109375,-2.564189910888672,-1.1288660764694214,8.731653213500977
1700822868258807000,6.57080712890625,-2.431311845779419,-1.1204863786697388,8.725667953491211
1700822868268989000,6.580989013671875,-3.578134536743164,-0.38905778527259827,10.366893768310547
1700822868278787000,6.590787109375,-2.365471363067627,-1.1480196714401245,10.754754066467285
1700822868288890000,6.60089013671875,-1.868674397468567,-2.7676970958709717,10.787075996398926
1700822868299068000,6.61106787109375,-2.6180596351623535,-3.0346505641937256,10.876858711242676
1700822868309018000,6.62101806640625,-2.874239206314087,-2.628833532333374,9.925163269042969
1700822868318815000,6.63081494140625,-2.691082715988159,-2.4372973442077637,9.247604370117188
1700822868328805000,6.64080517578125,-2.582146644592285,-2.1811177730560303,9.060855865478516
1700822868338914000,6.6509140625,-2.7269957065582275,-1.0749965906143188,9.718064308166504
1700822868348985000,6.660985107421875,-1.4257471561431885,-0.1711854189634323,9.90361499786377
1700822868358775000,6.670775146484375,-2.674323320388794,1.1264718770980835,9.946710586547852
1700822868368731000,6.68073095703125,-4.865017890930176,2.0015525817871094,10.291476249694824
1700822868378713000,6.690713134765625,-3.0813376903533936,1.6328455209732056,11.277887344360352
1700822868389547000,6.701547119140625,-0.2454056739807129,0.690727174282074,11.016919136047363
1700822868398921000,6.7109208984375,0.42377370595932007,-0.4513070285320282,10.819397926330566
1700822868408819000,6.72081884765625,0.33997663855552673,-2.1380221843719482,10.131064414978027
1700822868418628000,6.730628173828125,-1.5454572439193726,-3.8055837154388428,8.992621421813965
1700822868428776000,6.74077587890625,-3.5637693405151367,-3.9181110858917236,7.772775650024414
1700822868438745000,6.7507451171875,-6.671442985534668,-3.4177229404449463,4.843470096588135
1700822868448717000,6.760717041015625,-6.9240312576293945,-2.2361843585968018,4.586093425750732
1700822868458810000,6.77081005859375,-4.298789024353027,-1.6089035272598267,4.751293182373047
1700822868468738000,6.780738037109375,-2.1559786796569824,-0.6165069341659546,6.774393558502197
1700822868478852000,6.79085205078125,-0.547075092792511,-0.7829039692878723,9.651026725769043
1700822868488739000,6.800739013671875,0.8487445116043091,-1.478419542312622,12.534843444824219
1700822868498739000,6.810739013671875,0.5398924946784973,-0.9145850539207458,14.911087989807129
1700822868508941000,6.820941162109375,0.47884035110473633,-1.7310078144073486,15.369577407836914
1700822868518963000,6.830962890625,0.05506663769483566,-2.7078421115875244,13.73194408416748
1700822868528888000,6.84088818359375,-2.163161277770996,-2.828749418258667,10.248380661010742
1700822868538888000,6.850887939453125,-4.274847030639648,-3.9636008739471436,7.918822288513184
1700822868548726000,6.86072607421875,-5.492298603057861,-4.072536945343018,7.248445510864258
1700822868558953000,6.870952880859375,-5.228936672210693,-4.697423934936523,6.971915245056152
1700822868568664000,6.8806640625,-3.7648820877075195,-5.579687118530273,6.9024834632873535
1700822868578904000,6.890904052734375,-2.537853717803955,-5.414487361907959,7.280767440795898
1700822868588768000,6.90076806640625,-1.5825673341751099,-4.370615005493164,8.96269416809082
1700822868598816000,6.91081591796875,-0.3064578175544739,-2.8562827110290527,10.78468132019043
1700822868608861000,6.92086083984375,0.5434837937355042,0.19153612852096558,12.288240432739258
1700822868618843000,6.9308427734375,-0.12330138683319092,1.98958158493042,12.649765014648438
1700822868629029000,6.941029052734375,-0.16998831927776337,1.3551181554794312,11.932701110839844
1700822868638876000,6.9508759765625,-0.45250412821769714,0.05147533491253853,11.02051067352295
1700822868649067000,6.96106689453125,-1.3970166444778442,-0.5039794445037842,10.128670692443848
1700822868659163000,6.971162841796875,-1.7046716213226318,-0.6572083830833435,9.096769332885742
1700822868668986000,6.980986083984375,-2.254140853881836,-1.0402805805206299,8.465897560119629
1700822868678675000,6.990675048828125,-3.1292216777801514,-0.8403648138046265,8.620323181152344
1700822868688765000,7.000764892578125,-3.0597896575927734,-2.7126305103302,8.155848503112793
1700822868698797000,7.010797119140625,-1.5514427423477173,-2.5282769203186035,8.172607421875
1700822868709030000,7.02102978515625,-1.3886369466781616,2.6240451335906982,9.409213066101074
1700822868718938000,7.030938232421875,-1.7693150043487549,5.7760114669799805,10.030508041381836
1700822868728797000,7.040796875,-2.408566951751709,0.7565677165985107,8.550890922546387
1700822868739226000,7.05122607421875,-1.866280198097229,-3.56017804145813,10.104728698730469
1700822868748661000,7.060660888671875,-0.6105214357376099,-2.011129379272461,11.107898712158203
1700822868759189000,7.07118896484375,-0.22505496442317963,0.10295066982507706,11.638214111328125
1700822868768885000,7.080885009765625,-0.706289529800415,1.8806453943252563,11.299434661865234
1700822868778799000,7.090799072265625,-2.10210919380188,3.624821424484253,10.201693534851074
1700822868788790000,7.1007900390625,-3.1962592601776123,1.9716250896453857,7.752425193786621
1700822868798936000,7.11093603515625,-2.7904419898986816,1.1240776777267456,7.287950038909912
1700822868808963000,7.120963134765625,-2.737769603729248,-1.8291701078414917,7.0557122230529785
1700822868818883000,7.130883056640625,-0.889445960521698,-1.5825673341751099,9.309853553771973
1700822868828791000,7.140791015625,-0.5590460896492004,-0.25258827209472656,11.872846603393555
1700822868838938000,7.150938232421875,-0.7350199222564697,0.2322375625371933,11.432312965393066
1700822868848890000,7.16089013671875,-1.9033904075622559,1.359906554222107,10.927136421203613
1700822868858851000,7.17085107421875,-3.028665065765381,2.96162748336792,10.757147789001465
1700822868868969000,7.180968994140625,-3.6284127235412598,1.4197616577148438,9.398438453674316
1700822868879042000,7.1910419921875,-2.433706045150757,-0.19033902883529663,8.753201484680176
1700822868888983000,7.200983154296875,-2.169146776199341,-2.3235726356506348,8.117541313171387
1700822868898931000,7.210930908203125,-2.227804660797119,-3.155557870864868,8.5101900100708
1700822868908830000,7.220829833984375,-1.7274165153503418,-0.667982280254364,10.548852920532227
1700822868919000000,7.231,-2.0410568714141846,-0.34356793761253357,10.451887130737305
1700822868929049000,7.241049072265625,-2.653972625732422,-0.8032546639442444,9.578003883361816
1700822868940344000,7.252343994140625,-2.7521347999572754,0.20470423996448517,9.261969566345215
1700822868948740000,7.260739990234375,-2.5785553455352783,1.193509578704834,9.19972038269043
1700822868958788000,7.2707880859375,-2.165555477142334,1.3982137441635132,9.32661247253418
1700822868968746000,7.28074609375,-2.0925323963165283,1.1971008777618408,9.588777542114258
1700822868978755000,7.290755126953125,-2.5797524452209473,1.1420341730117798,9.797073364257812
1700822868988660000,7.300659912109375,-3.246537446975708,1.3634978532791138,9.99339771270752
1700822868998801000,7.31080078125,-3.1483752727508545,1.4520833492279053,9.775525093078613
1700822869008929000,7.320928955078125,-2.6384103298187256,1.5682021379470825,9.479841232299805
1700822869018811000,7.330810791015625,-2.2385785579681396,2.0877439975738525,9.241618156433105
1700822869028648000,7.34064794921875,-2.412158250808716,2.8814218044281006,9.526528358459473
1700822869038797000,7.350797119140625,-2.497152328491211,2.7916390895843506,9.90241813659668
1700822869048650000,7.36064990234375,-3.248931646347046,2.273294448852539,10.362105369567871
1700822869058928000,7.37092822265625,-5.093664169311523,2.1511902809143066,10.183736801147461
1700822869069101000,7.38110107421875,-4.692635536193848,2.388216257095337,9.738415718078613
1700822869078723000,7.39072314453125,-5.817910194396973,2.451662540435791,9.9371337890625
1700822869088808000,7.400807861328125,-4.64594841003418,0.4967968463897705,9.588777542114258
1700822869098647000,7.41064697265625,-3.098097085952759,-2.300827741622925,8.797493934631348
1700822869108655000,7.420655029296875,-1.6879122257232666,-3.537432909011841,8.20373249053955
1700822869118679000,7.430678955078125,-1.3072341680526733,-2.6623523235321045,8.146271705627441
1700822869128760000,7.440760009765625,-1.6053122282028198,-0.015562310814857483,8.106766700744629
1700822869138756000,7.450756103515625,-2.03507137298584,2.6563668251037598,8.289923667907715
1700822869148831000,7.4608310546875,-2.846705913543701,4.23773717880249,8.728062629699707
1700822869158645000,7.47064501953125,-4.432864665985107,3.8738183975219727,9.463082313537598
1700822869168734000,7.48073388671875,-5.1583075523376465,1.9057846069335938,10.190919876098633
1700822869178847000,7.490846923828125,-4.686649799346924,0.3387795388698578,10.248380661010742
1700822869188824000,7.500823974609375,-3.8953661918640137,0.6967126727104187,9.923966407775879
1700822869198786000,7.5107861328125,-3.7445313930511475,1.7154455184936523,9.830592155456543
1700822869208733000,7.52073291015625,-3.0885202884674072,2.5282769203186035,9.971850395202637
1700822869218752000,7.530751953125,-3.5434184074401855,2.7006595134735107,9.75278091430664
1700822869228849000,7.540848876953125,-3.5063083171844482,2.0673930644989014,9.883264541625977
1700822869238761000,7.550760986328125,-3.6128504276275635,1.0857704877853394,9.816226959228516
1700822869248918000,7.56091796875,-3.4835634231567383,0.014365210197865963,9.281123161315918
1700822869258774000,7.57077392578125,-3.1663317680358887,-0.9026140570640564,8.62511157989502
1700822869268776000,7.58077587890625,-2.4229321479797363,-1.0319008827209473,7.863755702972412
1700822869278804000,7.590803955078125,-1.8327614068984985,-0.20231004059314728,7.578845500946045
1700822869288769000,7.60076904296875,-1.7058687210083008,0.9349357485771179,7.575253963470459
1700822869298883000,7.610883056640625,-2.4636335372924805,1.9033904075622559,8.237251281738281
1700822869308773000,7.620773193359375,-3.384204149246216,2.782062292098999,9.045293807983398
1700822869318800000,7.6307998046875,-3.2178070545196533,3.469198226928711,9.750386238098145
1700822869328837000,7.640837158203125,-3.161543369293213,3.5170822143554688,10.182539939880371
1700822869338783000,7.650782958984375,-3.1088709831237793,2.5665841102600098,10.279504776000977
1700822869348794000,7.660794189453125,-3.1268274784088135,0.9528923034667969,9.854534149169922
1700822869358962000,7.6709619140625,-3.008314371109009,-0.3447650372982025,9.32421875
1700822869368624000,7.6806240234375,-3.290830135345459,-0.6033388376235962,7.24485445022583
1700822869378813000,7.69081298828125,-2.9077579975128174,0.5494692921638489,6.562506675720215
1700822869388871000,7.700870849609375,-3.2956185340881348,1.1492167711257935,7.390900611877441
1700822869399014000,7.711013916015625,-2.9987375736236572,0.9421183466911316,8.71728801727295
1700822869408826000,7.720826171875,-2.499546527862549,1.5203180313110352,9.528923034667969
1700822869418947000,7.730947021484375,-2.470816135406494,2.1092917919158936,10.079588890075684
1700822869428757000,7.740757080078125,-2.8993782997131348,2.3271639347076416,9.659406661987305
1700822869438800000,7.7507998046875,-3.157952070236206,1.9536685943603516,9.300276756286621
1700822869448912000,7.760911865234375,-3.0322563648223877,1.742978811264038,9.11233139038086
1700822869458676000,7.770676025390625,-3.2824504375457764,2.0841526985168457,8.742427825927734
1700822869468853000,7.78085302734375,-3.773261785507202,2.049436569213867,9.093177795410156
1700822869478724000,7.79072412109375,-3.2824504375457764,1.5394717454910278,9.410409927368164
1700822869488822000,7.800822021484375,-3.268085241317749,1.2773065567016602,9.27034854888916
1700822869498815000,7.81081494140625,-3.535038709640503,1.359906554222107,8.898050308227539
1700822869508822000,7.820822021484375,-3.6739025115966797,1.6053122282028198,8.978256225585938
1700822869518748000,7.830747802734375,-3.2369606494903564,1.765723705291748,9.496601104736328
1700822869528613000,7.840613037109375,-3.0154969692230225,1.2449848651885986,9.412803649902344
1700822869538610000,7.85060986328125,-2.871845006942749,1.3084312677383423,8.378508567810059
1700822869548739000,7.860739013671875,-2.7461493015289307,2.3558945655822754,7.820659637451172
1700822869558973000,7.870972900390625,-2.22660756111145,2.1811177730560303,8.69095230102539
1700822869568751000,7.880751220703125,-2.122459888458252,1.6364368200302124,9.433155059814453
1700822869578738000,7.890738037109375,-3.2992098331451416,1.7082629203796387,9.989806175231934
1700822869589068000,7.901068115234375,-4.508281707763672,1.725022315979004,10.183736801147461
1700822869598773000,7.91077294921875,-3.314772367477417,1.5071499347686768,9.715670585632324
1700822869608713000,7.920712890625,-2.692279815673828,1.2030863761901855,9.373299598693848
1700822869618890000,7.930889892578125,-3.6511576175689697,1.7166426181793213,9.68933391571045
1700822869628810000,7.94081005859375,-3.950432777404785,1.8483237028121948,9.475052833557129
1700822869638910000,7.950909912109375,-3.5194764137268066,1.941697597503662,9.205705642700195
1700822869649009000,7.9610087890625,-3.950432777404785,0.8810662031173706,8.74721622467041
1700822869658754000,7.970754150390625,-4.4759602546691895,0.4920084476470947,8.7484130859375
1700822869668701000,7.980700927734375,-3.5924997329711914,0.040701430290937424,7.982268333435059
1700822869678813000,7.99081298828125,-2.3582887649536133,0.1735796183347702,7.979874134063721
1700822869688813000,8.00081298828125,-2.742558002471924,0.014365210197865963,9.11233139038086
1700822869698888000,8.010887939453125,-3.584120035171509,0.7757213711738586,9.87967300415039
1700822869708763000,8.020762939453125,-4.888959884643555,1.238999366760254,10.310629844665527
1700822869718789000,8.0307890625,-5.147533416748047,1.382651448249817,10.133459091186523
1700822869728903000,8.04090283203125,-4.5836992263793945,1.4209587574005127,8.96269416809082
1700822869738675000,8.050675048828126,-4.027047157287598,1.3862427473068237,8.459911346435547
1700822869748844000,8.060843994140624,-2.517503023147583,0.6356605291366577,8.35336971282959
1700822869758801000,8.07080078125,-2.275688648223877,0.1867477297782898,9.160215377807617
1700822869768775000,8.08077490234375,-2.676717519760132,0.08978256583213806,10.077195167541504
1700822869779320000,8.091320068359375,-3.051409959793091,1.216254472732544,10.284293174743652
1700822869788884000,8.100884033203124,-3.4787750244140625,2.013523578643799,9.437943458557129
1700822869798739000,8.110739013671875,-4.577713489532471,1.2437877655029297,9.015366554260254
1700822869809210000,8.121210205078125,-5.3761796951293945,1.2976573705673218,8.334216117858887
1700822869818818000,8.130818115234375,-4.963180065155029,1.3754688501358032,8.01339340209961
1700822869829003000,8.1410029296875,-4.869806289672852,0.8918401598930359,8.905233383178711
1700822869838935000,8.15093505859375,-4.4759602546691895,0.5578489899635315,10.432733535766602
1700822869848809000,8.16080908203125,-4.031835556030273,0.9923965930938721,11.434707641601562
1700822869858869000,8.170868896484375,-4.4939165115356445,1.4437036514282227,11.659762382507324
1700822869868855000,8.18085498046875,-4.641160011291504,1.0115501880645752,10.832565307617188
1700822869878875000,8.190875,-4.598064422607422,0.871489405632019,9.354146003723145
1700822869888805000,8.20080517578125,-3.973177671432495,0.15083470940589905,8.913613319396973
1700822869898940000,8.21093994140625,-2.8443117141723633,-0.4908113479614258,8.5101900100708
1700822869909161000,8.221160888671875,-1.8064252138137817,-0.02992752194404602,8.524555206298828
1700822869918880000,8.2308798828125,-0.727837324142456,0.43694180250167847,9.040505409240723
1700822869928827000,8.240826904296876,-0.33279404044151306,0.34835633635520935,9.276334762573242
1700822869938706000,8.250705810546876,-0.5015852451324463,-0.21787235140800476,8.99621295928955
1700822869948735000,8.26073486328125,-0.9313444495201111,-1.9632453918457031,8.60236644744873
1700822869958677000,8.270677001953125,-2.4217350482940674,-3.7481226921081543,7.590816497802734
1700822869968875000,8.280875,-4.170699596405029,-4.683058738708496,6.845022678375244
1700822869978676000,8.290676025390624,-5.808333396911621,-3.578134536743164,7.07606315612793
1700822869988752000,8.300751953125,-6.300341606140137,-1.3024457693099976,9.974244117736816
1700822869998773000,8.31077294921875,-5.656301498413086,-0.8930372595787048,10.971428871154785
1700822870008804000,8.32080419921875,-4.36343240737915,-0.32680854201316833,11.3269681930542
1700822870018812000,8.33081201171875,-3.1735143661499023,0.3232172429561615,11.257535934448242
1700822870028670000,8.340669921875,-2.118868589401245,0.9804255962371826,10.44470500946045
1700822870038802000,8.350802001953125,-1.9345149993896484,0.8391677141189575,9.503783226013184
1700822870049048000,8.361048095703126,-2.4408886432647705,0.5650315880775452,8.42040729522705
1700822870058880000,8.3708798828125,-3.0538041591644287,-0.15562310814857483,7.762001991271973
1700822870068615000,8.380614990234376,-4.331110954284668,-0.8858546018600464,8.186972618103027
1700822870078912000,8.390912109375,-3.5446155071258545,-2.942473888397217,9.160215377807617
1700822870088713000,8.400712890625,-4.24970817565918,-3.578134536743164,9.66539192199707
1700822870098745000,8.4107451171875,-3.9624037742614746,-2.7126305103302,9.318233489990234
1700822870108760000,8.420760009765624,-3.823540210723877,-1.502361536026001,8.635885238647461
1700822870118756000,8.430756103515625,-3.3195607662200928,-1.1863269805908203,8.216899871826172
1700822870128742000,8.440741943359376,-2.3331496715545654,-1.6747441291809082,7.502231121063232
1700822870138620000,8.450619873046875,-1.3419500589370728,-2.96162748336792,6.807912349700928
1700822870148750000,8.46075,-1.05105459690094,-2.738966703414917,6.800729751586914
1700822870159106000,8.47110595703125,-0.38546648621559143,-2.2469582557678223,8.08402156829834
1700822870168703000,8.480702880859376,-0.24660277366638184,-1.6974890232086182,9.239224433898926
1700822870178974000,8.490973876953126,-0.5973533391952515,-2.38462495803833,10.35372543334961
1700822870188892000,8.500891845703125,-1.6915035247802734,-4.100070476531982,10.732008934020996
1700822870198863000,8.510863037109376,-2.469619035720825,-5.212177276611328,10.522516250610352
1700822870208691000,8.52069091796875,-2.5558102130889893,-6.242880821228027,9.871294021606445
1700822870218775000,8.530775146484375,-2.5474305152893066,-7.316680431365967,8.797493934631348
1700822870228741000,8.5407412109375,-3.8391025066375732,-6.98508358001709,8.225279808044434
1700822870238793000,8.55079296875,-2.3965959548950195,-5.975927352905273,9.320627212524414
1700822870248626000,8.5606259765625,-1.5059528350830078,-6.064512729644775,6.806715488433838
1700822870258675000,8.570675048828125,-0.6919242739677429,-2.0877439975738525,8.591592788696289
1700822870268612000,8.580612060546875,0.05746084079146385,1.556231141090393,12.24275016784668
1700822870278843000,8.5908427734375,-0.1149216815829277,2.8191723823547363,15.899893760681152
1700822870288724000,8.600723876953126,1.9572598934173584,3.624821424484253,17.750612258911133
1700822870299022000,8.61102197265625,-0.811634361743927,1.3934253454208374,16.790536880493164
1700822870308920000,8.620920166015624,0.4836287498474121,2.3283610343933105,15.12417221069336
1700822870318842000,8.630842041015624,1.501164436340332,1.7908629179000854,11.805809020996094
1700822870328596000,8.640595947265625,0.395043283700943,0.2669534981250763,8.53413200378418
1700822870338747000,8.650746826171876,-0.44532153010368347,-0.06584054976701736,5.791574001312256
1700822870348822000,8.660822021484375,-1.9033904075622559,0.3926490843296051,3.9372646808624268
1700822870358836000,8.6708359375,-3.228580951690674,1.238999366760254,2.873042106628418
1700822870368844000,8.680843994140625,-3.3877954483032227,1.867477297782898,3.384204149246216
1700822870378773000,8.69077294921875,-3.8965632915496826,0.12210428714752197,6.933608055114746
1700822870388782000,8.700781982421875,-1.6615760326385498,-0.17836803197860718,10.99776554107666
1700822870398773000,8.71077294921875,1.2533645629882812,0.1496376097202301,12.180500984191895
1700822870408942000,8.720942138671875,3.0334534645080566,0.05386953800916672,11.727996826171875
1700822870418708000,8.7307080078125,3.7816414833068848,-0.6009446382522583,10.56920337677002
1700822870428820000,8.740820068359374,2.562992811203003,-0.8571242094039917,10.034099578857422
1700822870438829000,8.7508291015625,0.1412578970193863,-0.6739677786827087,9.998186111450195
1700822870449107000,8.76110693359375,-1.2042834758758545,-0.363918662071228,9.797073364257812
1700822870458827000,8.770826904296875,-1.315613865852356,-0.10175357013940811,9.59596061706543
1700822870468717000,8.780717041015626,0.03711012750864029,0.09457096457481384,9.637859344482422
1700822870478881000,8.790881103515625,1.213860273361206,0.02513911761343479,9.654618263244629
1700822870489058000,8.80105810546875,1.3395558595657349,-0.18794482946395874,9.625887870788574
1700822870498671000,8.810671142578125,0.8631097078323364,-0.21188685297966003,9.606734275817871
1700822870508771000,8.82077099609375,0.28730419278144836,-0.16998831927776337,9.561244010925293
1700822870518754000,8.830754150390625,0.29209262132644653,-0.21428105235099792,9.521739959716797
1700822870528749000,8.8407490234375,0.6799532771110535,-0.32202014327049255,9.66539192199707
1700822870538595000,8.850594970703124,1.138442873954773,-0.44771572947502136,9.822212219238281
1700822870548602000,8.86060205078125,1.337161660194397,-0.5566518902778625,9.974244117736816
1700822870558717000,8.870717041015626,1.3275848627090454,-0.6165069341659546,10.108319282531738
1700822870568754000,8.88075390625,1.3970166444778442,-0.6045359373092651,10.129867553710938
1700822870578880000,8.8908798828125,1.5107412338256836,-0.5829881429672241,10.08437728881836
1700822870588804000,8.90080419921875,1.5143325328826904,-0.5195417404174805,10.079588890075684
1700822870598941000,8.91094091796875,1.313219666481018,-0.5482721924781799,9.792284965515137
1700822870608779000,8.920779052734375,1.170764684677124,-0.7637503147125244,9.619902610778809
1700822870618811000,8.930810791015626,1.0965443849563599,-0.889445960521698,9.375694274902344
1700822870628888000,8.94088818359375,1.0330979824066162,-0.9253589510917664,9.205705642700195
1700822870638696000,8.950696044921875,1.0283095836639404,-0.889445960521698,9.197325706481934
1700822870648874000,8.9608740234375,1.0749965906143188,-0.8559271097183228,9.308655738830566
1700822870658870000,8.9708701171875,1.170764684677124,-0.9026140570640564,9.519346237182617
1700822870668855000,8.98085498046875,1.260547161102295,-0.99479079246521,9.744400978088379
1700822870678945000,8.990945068359375,1.3658920526504517,-1.0809820890426636,10.002974510192871
1700822870688679000,9.000678955078126,1.4257471561431885,-1.138442873954773,10.257957458496094
1700822870698978000,9.01097802734375,1.4856021404266357,-1.1348515748977661,10.409989356994629
1700822870708963000,9.020963134765625,1.5059528350830078,-1.036689281463623,10.321403503417969
1700822870718979000,9.03097900390625,1.3060370683670044,-0.9624691009521484,10.041281700134277
1700822870728979000,9.04097900390625,1.0019733905792236,-0.9277531504631042,9.75637149810791
1700822870738724000,9.05072412109375,0.7661445140838623,-1.01753568649292,9.554061889648438
1700822870748987000,9.06098681640625,0.7793126702308655,-1.0965443849563599,9.534908294677734
1700822870758843000,9.0708427734375,0.9145850539207458,-1.1755530834197998,9.643844604492188
1700822870768818000,9.08081787109375,0.9481038451194763,-1.314416766166687,9.739612579345703
1700822870778826000,9.090825927734375,1.1049240827560425,-1.4700398445129395,9.805453300476074
1700822870788644000,9.10064404296875,0.9217676520347595,-1.0522516965866089,9.452308654785156
1700822870798714000,9.110714111328125,0.10175357013940811,-0.3974374830722809,9.41639518737793
1700822870808701000,9.120700927734376,0.5111620426177979,0.14844051003456116,9.84615421295166
1700822870818917000,9.130917236328125,1.478419542312622,-0.829590916633606,9.485827445983887
1700822870828780000,9.140780029296875,1.558625340461731,-2.0398597717285156,9.457097053527832
1700822870838806000,9.150805908203125,1.2773065567016602,-1.521515130996704,9.576807022094727
1700822870848791000,9.160791015625,1.8626888990402222,-0.6404489278793335,10.69130802154541
1700822870858824000,9.170823974609375,2.409764051437378,-0.19273324310779572,10.63624095916748
1700822870868846000,9.18084619140625,0.6224924325942993,-0.17238251864910126,10.02691650390625
1700822870878835000,9.1908349609375,-0.7110779285430908,-0.46567222476005554,9.642647743225098
1700822870888840000,9.20083984375,-0.5746083855628967,-0.3687070608139038,9.75397777557373
1700822870898759000,9.210759033203125,0.456095427274704,0.13407529890537262,9.718064308166504
1700822870908832000,9.22083203125,1.723825216293335,0.2190694510936737,8.978256225585938
1700822870918817000,9.230817138671876,1.9057846069335938,-0.1843535304069519,8.406042098999023
1700822870934027000,9.246027099609375,1.2042834758758545,-0.8176198601722717,8.864531517028809
1700822870948847000,9.26084716796875,0.19033902883529663,-1.4089876413345337,9.275136947631836
1700822870958768000,9.27076806640625,0.13048399984836578,-1.3287819623947144,9.369708061218262
1700822870968835000,9.2808349609375,0.6619967818260193,-1.1659762859344482,9.642647743225098
1700822870978857000,9.29085693359375,1.0031704902648926,-0.4129997789859772,10.292673110961914
1700822870988829000,9.300828857421875,1.0307037830352783,0.28969839215278625,11.012130737304688
1700822870998787000,9.310787109375,1.3311761617660522,0.47405192255973816,11.125855445861816
1700822871008857000,9.320857177734375,2.3032219409942627,0.03950432687997818,10.758345603942871
1700822871018820000,9.330820068359374,2.4851813316345215,-0.9636662006378174,10.061633110046387
1700822871029294000,9.341294189453125,2.0027496814727783,-2.098517894744873,9.08838939666748
1700822871038951000,9.350950927734376,1.0606313943862915,-2.7234044075012207,8.793902397155762
1700822871048793000,9.36079296875,1.0115501880645752,-2.4588451385498047,8.647856712341309
1700822871058863000,9.370863037109375,0.871489405632019,-2.029085874557495,8.75080680847168
1700822871068769000,9.38076904296875,1.482010841369629,-1.315613865852356,9.458293914794922
1700822871078785000,9.390784912109375,2.0901381969451904,-1.1348515748977661,10.435128211975098
1700822871088901000,9.400901123046875,2.3774423599243164,-0.6248866319656372,11.233593940734863
1700822871098809000,9.41080908203125,2.337938070297241,-0.3232172429561615,11.176133155822754
1700822871108766000,9.420765869140626,3.3530795574188232,0.2669534981250763,10.597933769226074
1700822871118900000,9.43089990234375,2.5330653190612793,0.23582886159420013,9.961075782775879
1700822871128893000,9.440892822265624,1.478419542312622,-0.29209262132644653,9.566033363342285
1700822871138671000,9.450671142578125,0.9038111567497253,-0.889445960521698,9.53849983215332
1700822871148698000,9.460697998046875,1.0570400953292847,-1.1623848676681519,9.965864181518555
1700822871158771000,9.47077099609375,1.699883222579956,-1.338358759880066,10.102334022521973
1700822871168645000,9.48064501953125,1.6112977266311646,-1.194706678390503,10.02811336517334
1700822871178798000,9.490798095703125,1.9033904075622559,-0.9050082564353943,9.619902610778809
1700822871189155000,9.501155029296875,1.9716250896453857,-0.5159504413604736,9.494206428527832
1700822871198787000,9.510787109375,3.005920171737671,-0.019153613597154617,9.47265911102295
1700822871208924000,9.520923828125,1.9045875072479248,-0.5159504413604736,9.835380554199219
1700822871218853000,9.53085302734375,2.4025814533233643,-0.4118026793003082,10.38604736328125
1700822871228849000,9.540848876953126,1.6136919260025024,-0.8990227580070496,10.202890396118164
1700822871238865000,9.550864990234375,3.1064767837524414,-1.800439715385437,9.23443603515625
1700822871248853000,9.56085302734375,2.469619035720825,-2.3714568614959717,9.02015495300293
1700822871258831000,9.5708310546875,1.8160020112991333,-1.9381062984466553,8.75080680847168
1700822871268776000,9.58077587890625,2.5941176414489746,-1.4688427448272705,7.240066051483154
1700822871278823000,9.590822998046875,2.1344308853149414,-1.6531962156295776,7.906851291656494
1700822871288812000,9.60081201171875,1.5263035297393799,-0.8643068075180054,9.241618156433105
1700822871298651000,9.61065087890625,2.734178304672241,-0.08140286058187485,10.213664054870605
1700822871308831000,9.6208310546875,3.268085241317749,0.22864626348018646,10.917559623718262
1700822871318986000,9.630986083984375,2.6791117191314697,0.43335050344467163,11.51611042022705
1700822871328864000,9.640864013671875,2.403778553009033,0.4213795065879822,11.279084205627441
1700822871338686000,9.65068603515625,2.5462334156036377,0.13048399984836578,9.761159896850586
1700822871348822000,9.660822021484375,1.96683669090271,-0.645237386226654,8.111555099487305
1700822871358834000,9.670833984375,1.525106430053711,-1.7405846118927002,7.267599105834961
1700822871368905000,9.680905029296875,1.9165585041046143,-2.2385785579681396,7.280767440795898
1700822871378916000,9.690916015625,1.7932571172714233,-0.9169792532920837,7.948749542236328
1700822871388662000,9.700662109375,2.234987258911133,-0.21547815203666687,9.50498104095459
1700822871398904000,9.710904052734374,2.433706045150757,-0.03950432687997818,10.623072624206543
1700822871408849000,9.720848876953125,2.5438392162323,-0.7625532150268555,10.47942066192627
1700822871418912000,9.730912109375,2.205059766769409,-1.7310078144073486,9.904812812805176
1700822871428876000,9.7408759765625,2.098517894744873,-2.3044190406799316,8.990227699279785
1700822871438868000,9.750867919921875,2.070984363555908,-2.2864625453948975,8.613141059875488
1700822871449329000,9.761328857421875,2.7102363109588623,-1.3012486696243286,8.759186744689941
1700822871458740000,9.770739990234375,3.0992941856384277,1.0043675899505615,10.040084838867188
1700822871468712000,9.7807119140625,3.4117374420166016,2.826355218887329,11.196484565734863
1700822871478757000,9.790757080078125,2.2828712463378906,2.5677812099456787,10.72722053527832
1700822871488884000,9.800884033203126,1.1348515748977661,1.2006921768188477,9.133879661560059
1700822871498830000,9.810830078125,1.0618284940719604,1.0019733905792236,7.6746134757995605
1700822871508820000,9.820820068359374,1.9512743949890137,1.357512354850769,7.424419403076172
1700822871518815000,9.83081494140625,4.175487995147705,0.9085995554924011,8.759186744689941
1700822871528751000,9.840751220703124,4.265270233154297,1.7956513166427612,9.008183479309082
1700822871538869000,9.850868896484375,2.940079689025879,1.6855180263519287,8.681375503540039
1700822871548740000,9.860739990234375,1.3323732614517212,1.1851298809051514,8.811859130859375
1700822871558903000,9.870903076171874,0.5770025849342346,1.1049240827560425,9.473855972290039
1700822871568634000,9.880634033203124,0.6631938815116882,1.3048399686813354,10.047266960144043
1700822871578652000,9.89065185546875,0.5111620426177979,1.7609353065490723,10.826580047607422
1700822871588618000,9.900617919921874,0.0802057534456253,2.139219284057617,9.63067626953125
1700822871598755000,9.910755126953125,0.7481880187988281,2.0614075660705566,9.421183586120605
1700822871608636000,9.920635986328126,0.8559271097183228,2.2146365642547607,9.59835433959961
1700822871618820000,9.930820068359376,1.4844050407409668,1.501164436340332,9.732429504394531
1700822871628828000,9.940827880859375,1.091755986213684,0.1735796183347702,9.610325813293457
1700822871639068000,9.95106787109375,0.5003881454467773,0.5482721924781799,9.288305282592773
1700822871649039000,9.9610390625,0.19033902883529663,0.3076549172401428,8.615534782409668
1700822871658734000,9.970734130859375,-0.2645592987537384,0.7146692276000977,8.402450561523438
1700822871668722000,9.980721923828124,-0.16879121959209442,0.9229647517204285,8.329427719116211
1700822871678612000,9.990612060546875,0.7457938194274902,0.910993754863739,9.11233139038086
1700822871688918000,10.00091796875,1.6639702320098877,1.2258312702178955,8.981847763061523
1700822871698730000,10.01072998046875,1.5454572439193726,2.2828712463378906,9.57321548461914
1700822871708737000,10.020737060546875,0.8906430602073669,2.118868589401245,10.502165794372559
1700822871718763000,10.030762939453124,-0.2693476974964142,0.42856210470199585,10.128670692443848
1700822871728775000,10.04077490234375,-1.7597382068634033,0.48722004890441895,9.712079048156738
1700822871738713000,10.050713134765624,-2.45285964012146,0.15921440720558167,9.150638580322266
1700822871749155000,10.061155029296875,-2.8095955848693848,-0.6931213736534119,9.384073257446289
1700822871758794000,10.0707939453125,-3.88818359375,-1.4987702369689941,9.4822359085083
1700822871768928000,10.080927978515625,-5.292382717132568,-1.0534487962722778,9.697713851928711
1700822871778972000,10.090971923828125,-6.121973514556885,-1.3922282457351685,10.528501510620117
1700822871789513000,10.101512939453125,-2.9724013805389404,-4.065354347229004,11.895590782165527
1700822871799365000,10.111365234375,-0.5446808934211731,-5.704185485839844,13.67807388305664
1700822871808897000,10.12089697265625,0.5434837937355042,-7.492654323577881,16.55470848083496
1700822871818835000,10.1308349609375,3.113659381866455,-7.69735860824585,15.656882286071777
1700822871828950000,10.140949951171875,1.9931728839874268,-10.459070205688477,11.037269592285156
1700822871839327000,10.151326904296875,-1.6735470294952393,-7.2352776527404785,7.417236804962158
1700822871848773000,10.160773193359375,-0.5123591423034668,-4.3825860023498535,6.958747386932373
1700822871858846000,10.170845947265626,1.8590975999832153,-1.8770540952682495,8.699332237243652
1700822871868813000,10.18081298828125,3.8558619022369385,-0.36152446269989014,11.188104629516602
1700822871878875000,10.190875,2.05781626701355,2.851494312286377,13.017274856567383
1700822871888930000,10.200929931640625,0.06584054976701736,7.496245384216309,14.699201583862305
1700822871898678000,10.210677978515625,1.558625340461731,6.621164798736572,15.198391914367676
1700822871908863000,10.220863037109375,-0.49320554733276367,4.526238441467285,14.63695240020752
1700822871919023000,10.231023193359375,-0.5123591423034668,0.243011474609375,11.668142318725586
1700822871928883000,10.240883056640625,-2.0374655723571777,-3.6619315147399902,8.795100212097168
1700822871939037000,10.251036865234376,-4.134786128997803,-5.163095951080322,7.887697696685791
1700822871953821000,10.265821044921875,-5.099649429321289,-5.30076265335083,7.536946773529053
1700822871968885000,10.280885009765624,-0.9217676520347595,-3.584120035171509,6.697779178619385
1700822871978707000,10.29070703125,-0.2621650993824005,0.4776432514190674,9.998186111450195
1700822871988836000,10.300836181640625,-0.5482721924781799,2.278082847595215,12.27387523651123
1700822871998814000,10.31081396484375,0.5003881454467773,2.212242364883423,12.939462661743164
1700822872008818000,10.32081787109375,-1.0570400953292847,2.2864625453948975,13.073538780212402
1700822872018821000,10.330821044921874,0.4082113802433014,0.6536170840263367,11.440692901611328
1700822872028942000,10.340942138671876,-0.7254431247711182,-1.258152961730957,8.403648376464844
1700822872038842000,10.350842041015625,-3.779247283935547,-2.360682964324951,5.503072738647461
1700822872048642000,10.36064208984375,-5.4695539474487305,-2.078166961669922,4.663905143737793
1700822872058646000,10.37064599609375,-5.266046524047852,-1.801636815071106,6.509834289550781
1700822872068883000,10.380883056640625,-1.0570400953292847,-1.5957354307174683,9.713275909423828
1700822872079270000,10.391269775390626,1.6101006269454956,-0.9983820915222168,13.617022514343262
1700822872088893000,10.400892822265625,0.750582218170166,-0.49320554733276367,14.733917236328125
1700822872098752000,10.410751953125,1.1827356815338135,1.1109095811843872,12.258312225341797
1700822872108731000,10.42073095703125,1.6531962156295776,2.738966703414917,8.53652572631836
1700822872118666000,10.430666015625,0.42018240690231323,4.398148536682129,4.181473255157471
1700822872128823000,10.440822998046874,-7.0593037605285645,2.315192937850952,7.574057102203369
1700822872139324000,10.451323974609375,-9.514557838439941,-3.22139835357666,11.105504989624023
1700822872148761000,10.460760986328125,-5.196614742279053,-4.90452241897583,12.355278015136719
1700822872158768000,10.47076806640625,4.844666957855225,-3.464409828186035,13.198037147521973
1700822872168982000,10.48098193359375,3.1759085655212402,-2.761711597442627,12.806585311889648
1700822872178884000,10.490884033203125,-0.47165772318840027,-1.2749123573303223,10.087968826293945
1700822872188719000,10.500718994140625,-1.4867992401123047,1.1851298809051514,8.616731643676758
1700822872198724000,10.51072412109375,-2.38462495803833,2.6443958282470703,6.115988254547119
1700822872208781000,10.520781005859375,-1.8938134908676147,2.053027868270874,4.492719650268555
1700822872218991000,10.5309912109375,-4.05817174911499,2.896984100341797,4.551377296447754
1700822872228797000,10.540796875,-3.645172119140625,3.0418331623077393,7.236474514007568
1700822872239226000,10.55122607421875,-1.8734627962112427,3.4979286193847656,10.074800491333008
1700822872248774000,10.56077392578125,1.0881646871566772,3.7493197917938232,11.660959243774414
1700822872258819000,10.570819091796874,4.711789131164551,3.7169981002807617,12.346898078918457
1700822872268899000,10.580899169921874,7.714118003845215,3.642777919769287,12.751518249511719
1700822872278808000,10.59080810546875,7.225700855255127,2.585737943649292,14.171279907226562
1700822872288810000,10.60081005859375,3.556586742401123,1.0522516965866089,16.98805809020996
1700822872298753000,10.6107529296875,0.17956513166427612,-0.13287819921970367,19.489999771118164
1700822872308916000,10.620916015625,-4.2544965744018555,-2.2804770469665527,18.691532135009766
1700822872318779000,10.63077880859375,-6.692990779876709,-3.227383852005005,15.130157470703125
1700822872328879000,10.640879150390624,-9.713275909423828,-3.02986216545105,11.587936401367188
1700822872338797000,10.650797119140625,-10.030508041381836,-3.643975019454956,8.093599319458008
1700822872348923000,10.6609228515625,-7.801506042480469,-3.6810851097106934,5.173870086669922
1700822872358793000,10.67079296875,-6.250063419342041,-4.28322696685791,3.1926679611206055
1700822872368801000,10.680801025390625,-3.957615375518799,-5.540182590484619,2.456450939178467
1700822872379037000,10.691036865234375,-1.768117904663086,-6.672640323638916,3.883395195007324
1700822872388883000,10.700883056640626,0.9301473498344421,-7.374141216278076,7.800309181213379
1700822872398906000,10.710906005859375,4.490325450897217,-8.090007781982422,11.645397186279297
1700822872408856000,10.72085595703125,10.072406768798828,-9.051279067993164,11.783063888549805
1700822872418860000,10.730860107421876,13.55237865447998,-8.674192428588867,10.718840599060059
1700822872428787000,10.740786865234375,12.844892501831055,-7.844601631164551,8.771158218383789
1700822872439029000,10.751029052734374,7.605181694030762,-5.4875102043151855,8.220491409301758
1700822872448982000,10.76098193359375,2.1763293743133545,-3.530250310897827,7.447164535522461
1700822872458854000,10.77085400390625,1.765723705291748,-2.892195701599121,6.934805393218994
1700822872468632000,10.780632080078124,2.232593059539795,-2.5737667083740234,7.511807918548584
1700822872478780000,10.79077978515625,1.922544002532959,-2.213439464569092,8.447940826416016
1700822872488753000,10.8007529296875,1.2330138683319092,-2.7461493015289307,9.191340446472168
1700822872498882000,10.810882080078125,0.7086837291717529,-3.4572272300720215,9.23682975769043
1700822872508700000,10.820699951171875,1.1540051698684692,-3.643975019454956,8.935160636901855
1700822872518654000,10.830654052734374,2.0901381969451904,-2.3367409706115723,9.57441234588623
1700822872528868000,10.8408681640625,3.2537200450897217,0.12928688526153564,11.188104629516602
1700822872538769000,10.850768798828126,4.264073371887207,1.4484920501708984,11.988965034484863
1700822872548960000,10.8609599609375,4.200626850128174,2.3487119674682617,12.127828598022461
1700822872558880000,10.8708798828125,2.029085874557495,3.220201253890991,11.05522632598877
1700822872568627000,10.880626953125,-0.46806642413139343,4.031835556030273,9.971850395202637
1700822872581018000,10.89301806640625,-0.6799532771110535,3.997119665145874,9.265560150146484
1700822872598675000,10.910675048828125,-0.02513911761343479,3.602076530456543,10.698490142822266
1700822872608764000,10.920763916015625,0.5829881429672241,1.801636815071106,10.855310440063477
1700822872618663000,10.930662841796876,1.291671872138977,-0.0454898327589035,10.1382474899292
1700822872628770000,10.94077001953125,2.425326347351074,-0.9349357485771179,9.904812812805176
1700822872638761000,10.950760986328126,3.051409959793091,-1.5298948287963867,9.926360130310059
1700822872648893000,10.960892822265626,2.9532477855682373,-1.4544775485992432,10.20767879486084
1700822872658844000,10.970843994140624,2.513911724090576,-1.192312479019165,10.503362655639648
1700822872668711000,10.9807109375,2.322375535964966,-0.5374982953071594,10.704475402832031
1700822872678739000,10.990739013671876,2.227804660797119,0.6967126727104187,10.885237693786621
1700822872688828000,11.000827880859376,1.5969325304031372,0.993593692779541,10.56800651550293
1700822872698840000,11.010840087890625,1.4053963422775269,0.25498247146606445,9.95748519897461
1700822872708734000,11.02073388671875,1.6124948263168335,-0.6009446382522583,9.311050415039062
1700822872718738000,11.030738037109375,1.8555063009262085,-1.5095441341400146,8.62630844116211
1700822872728741000,11.0407412109375,2.0171148777008057,-2.1763293743133545,8.719682693481445
1700822872738752000,11.050751953125,2.126051187515259,-2.1954829692840576,9.287108421325684
1700822872748722000,11.060721923828124,2.6862943172454834,-1.43532395362854,9.23682975769043
1700822872758861000,11.070861083984376,2.6360161304473877,0.152031809091568,9.603142738342285
1700822872768847000,11.08084716796875,2.5019407272338867,-0.0454898327589035,9.651026725769043
1700822872778878000,11.0908779296875,-0.026336219161748886,0.1711854189634323,9.412803649902344
1700822872788858000,11.100858154296875,-0.8068459630012512,0.7589619159698486,10.002974510192871
1700822872799039000,11.1110390625,-0.7948749661445618,2.211045265197754,10.704475402832031
1700822872808998000,11.120997802734376,0.5015852451324463,3.422511339187622,10.759542465209961
1700822872818883000,11.130883056640625,1.777694821357727,5.219359874725342,10.925939559936523
1700822872828933000,11.14093310546875,2.161964178085327,6.124367713928223,11.028889656066895
1700822872838848000,11.150847900390625,2.427720546722412,5.050568580627441,10.218452453613281
1700822872848810000,11.16081005859375,1.722628116607666,2.6431987285614014,8.584410667419434
1700822872858826000,11.170825927734375,0.9600749015808105,1.9093759059906006,8.129511833190918
1700822872868871000,11.180870849609375,0.5889736413955688,1.578976035118103,8.629899978637695
1700822872878838000,11.190838134765626,1.071405291557312,-0.2849099934101105,8.540117263793945
1700822872888821000,11.200821044921875,1.095347285270691,-0.7374141216278076,9.364919662475586
1700822872899007000,11.211007080078126,-0.16879121959209442,-0.547075092792511,10.15021800994873
1700822872908964000,11.220964111328126,4.042609691619873,-1.4652514457702637,9.872490882873535
1700822872918840000,11.230840087890625,6.4415998458862305,-0.667982280254364,11.411962509155273
1700822872928953000,11.240953125,4.716577529907227,-1.4712369441986084,11.313799858093262
1700822872940529000,11.25252880859375,3.5673606395721436,-3.957615375518799,8.863334655761719
1700822872949010000,11.261010009765625,1.6663644313812256,-5.5545477867126465,7.933187484741211
1700822872958854000,11.27085400390625,-1.725022315979004,-3.827131509780884,9.169792175292969
1700822872969040000,11.281039794921876,-3.973177671432495,1.765723705291748,11.027692794799805
1700822872978646000,11.29064599609375,-0.28371289372444153,3.647566318511963,10.664971351623535
1700822872988739000,11.300739013671874,4.648342609405518,3.2609026432037354,9.188945770263672
1700822872998674000,11.310673828125,5.367800235748291,2.4025814533233643,8.967482566833496
1700822873010367000,11.322366943359375,2.898181200027466,2.7533318996429443,9.276334762573242
1700822873018649000,11.330649169921875,-0.5171475410461426,3.5733461380004883,10.189722061157227
1700822873028620000,11.3406201171875,-2.8215668201446533,3.9420530796051025,10.407594680786133
1700822873038773000,11.35077294921875,-2.345120668411255,3.891774892807007,9.703699111938477
1700822873048753000,11.3607529296875,0.17717093229293823,3.1471781730651855,8.927978515625
1700822873058755000,11.370755126953124,2.321178436279297,1.8842366933822632,9.437943458557129
1700822873068862000,11.380862060546875,1.9333178997039795,1.9548656940460205,10.78468132019043
1700822873078915000,11.3909150390625,1.578976035118103,2.5438392162323,12.071564674377441
1700822873088940000,11.40093994140625,1.5394717454910278,4.167108058929443,10.42076301574707
1700822873098889000,11.410888916015624,1.84233820438385,3.5649664402008057,8.829815864562988
1700822873108891000,11.420890869140624,1.5646108388900757,1.6927006244659424,7.838616371154785
1700822873118904000,11.430904052734375,0.7374141216278076,1.2773065567016602,8.236053466796875
1700822873128964000,11.440964111328125,0.02513911761343479,1.9704279899597168,9.222464561462402
1700822873138783000,11.450782958984375,0.20231004059314728,1.9788076877593994,10.177751541137695
1700822873148965000,11.460965087890624,1.6340426206588745,-0.24660277366638184,10.78587818145752
1700822873158941000,11.47094091796875,2.694674015045166,-2.649184226989746,10.471040725708008
1700822873168799000,11.480799072265626,2.9915549755096436,-3.827131509780884,9.712079048156738
1700822873178953000,11.490952880859375,2.389413356781006,-2.7006595134735107,8.971074104309082
1700822873188915000,11.5009150390625,1.3634978532791138,-0.05267243832349777,9.532513618469238
1700822873198841000,11.510841064453125,1.946485996246338,0.9744400978088379,9.214085578918457
1700822873208861000,11.52086083984375,2.2014684677124023,1.1899182796478271,8.668207168579102
1700822873218826000,11.530825927734375,1.8495208024978638,0.39624038338661194,8.526948928833008
1700822873228834000,11.540833984375,1.0678139925003052,0.33758243918418884,9.103952407836914
1700822873238864000,11.55086376953125,0.5829881429672241,1.0247182846069336,9.534908294677734
1700822873248970000,11.560969970703125,0.4345476031303406,2.631227731704712,10.521319389343262
1700822873258912000,11.570912109375,1.6376339197158813,3.869029998779297,11.025299072265625
1700822873271262000,11.583261962890624,2.9939491748809814,4.473566055297852,10.336965560913086
1700822873288797000,11.600796875,2.470816135406494,4.343081951141357,9.344569206237793
1700822873298967000,11.610967041015625,1.3455413579940796,3.5446155071258545,8.960299491882324
1700822873308745000,11.620744873046876,-0.013168109580874443,4.150348663330078,9.330204010009766
1700822873318942000,11.63094189453125,-0.8762778043746948,5.737704277038574,10.213664054870605
1700822873329047000,11.641047119140625,-0.16519992053508759,6.716932773590088,9.81143856048584
1700822873338847000,11.650846923828125,0.5710170865058899,6.950367450714111,9.155426979064941
1700822873348949000,11.660948974609376,0.6715735793113708,6.907271862030029,8.767566680908203
1700822873358949000,11.67094921875,0.547075092792511,6.465541839599609,8.504204750061035
1700822873368895000,11.68089501953125,0.790086567401886,3.869029998779297,8.50061321258545
1700822873378912000,11.690912109375,1.3527239561080933,-0.5111620426177979,9.165003776550293
1700822873388809000,11.70080908203125,1.2856862545013428,-4.274847030639648,10.158597946166992
1700822873398820000,11.710820068359375,3.736151695251465,-10.746374130249023,9.08719253540039
1700822873408932000,11.72093212890625,4.862623691558838,-11.261127471923828,8.62271785736084
1700822873419012000,11.73101220703125,4.356249809265137,-6.938396453857422,8.286332130432129
1700822873428834000,11.740833984375,3.141192674636841,-3.555389642715454,9.522936820983887
1700822873439130000,11.751130126953125,2.542642116546631,-1.1671733856201172,8.949525833129883
1700822873448991000,11.760990966796875,3.1531636714935303,-0.26815059781074524,8.002618789672852
1700822873458712000,11.770712158203125,2.8131868839263916,0.20231004059314728,7.824251174926758
1700822873468880000,11.7808798828125,0.93254154920578,0.22026655077934265,8.455122947692871
1700822873478874000,11.7908740234375,-0.706289529800415,-0.17238251864910126,9.095572471618652
1700822873488894000,11.80089404296875,-1.5693992376327515,-0.06464344263076782,9.801861763000488
1700822873498878000,11.8108779296875,-1.1516109704971313,0.6548141837120056,10.550049781799316
1700822873508886000,11.820885986328125,0.3208230137825012,1.2976573705673218,11.1474027633667
1700822873518981000,11.830981201171875,1.359906554222107,2.6144683361053467,11.207258224487305
1700822873528863000,11.840863037109376,1.4664485454559326,3.976768970489502,10.8720703125
1700822873538894000,11.85089404296875,1.3994108438491821,4.037821292877197,10.498574256896973
1700822873548898000,11.86089794921875,1.3180080652236938,2.0649988651275635,9.874884605407715
1700822873558955000,11.870955078125,1.039083480834961,0.32441434264183044,9.558850288391113
1700822873569375000,11.881375,1.4915876388549805,1.016338586807251,9.398438453674316
1700822873578860000,11.890860107421876,1.1444283723831177,2.389413356781006,9.564835548400879
1700822873588961000,11.9009609375,0.36152446269989014,3.4165258407592773,9.554061889648438
1700822873598969000,11.910968994140624,-0.22744916379451752,3.892971992492676,9.831789016723633
1700822873608789000,11.9207890625,-0.6440402865409851,4.667496204376221,9.995792388916016
1700822873618883000,11.930883056640624,-0.6404489278793335,5.501875400543213,9.981427192687988
1700822873628880000,11.9408798828125,-0.23942017555236816,5.716156482696533,10.497377395629883
1700822873638703000,11.950703125,0.3280056416988373,5.548562526702881,11.033679008483887
1700822873652009000,11.964009033203125,0.5734112858772278,4.887762546539307,11.777078628540039
1700822873668682000,11.980681884765625,0.017956512048840523,5.5114521980285645,11.646594047546387
1700822873678787000,11.990787109375,-0.6943184733390808,5.1810526847839355,11.313799858093262
1700822873688884000,12.000884033203125,-0.27653029561042786,3.2345664501190186,10.437521934509277
1700822873698746000,12.01074609375,0.9612720012664795,1.4305355548858643,10.014945983886719
1700822873708647000,12.02064697265625,0.6356605291366577,2.140416383743286,9.221267700195312
1700822873718774000,12.03077392578125,0.6200982332229614,0.9624691009521484,8.766369819641113
1700822873728721000,12.040720947265624,1.502361536026001,-0.32202014327049255,7.422025203704834
1700822873738625000,12.050625,2.4408886432647705,-1.0809820890426636,5.993884086608887
1700822873748746000,12.06074609375,1.6328455209732056,0.15801730751991272,6.8127007484436035
1700822873758765000,12.07076513671875,-0.5422866940498352,2.4684219360351562,8.989029884338379
1700822873768772000,12.080772216796875,-0.5267243981361389,1.460463047027588,9.940725326538086
1700822873778789000,12.0907890625,1.0223240852355957,-0.7996633648872375,9.169792175292969
1700822873788824000,12.100823974609375,1.2892776727676392,-1.7190368175506592,9.363722801208496
1700822873799026000,12.11102587890625,1.8698714971542358,-2.076969861984253,9.65222454071045
1700822873808874000,12.1208740234375,3.491943120956421,-1.8255788087844849,9.761159896850586
1700822873818961000,12.1309609375,2.9496564865112305,0.6715735793113708,10.56800651550293
1700822873828824000,12.140823974609376,0.5602431893348694,2.144007682800293,10.256759643554688
1700822873838685000,12.150684814453125,-0.8319851160049438,2.7305870056152344,9.799467086791992
1700822873848981000,12.16098095703125,-0.8032546639442444,3.4763808250427246,9.57321548461914
1700822873858953000,12.170952880859375,0.13287819921970367,3.5482068061828613,9.294290542602539
1700822873868901000,12.180901123046874,0.8990227580070496,2.8646624088287354,9.403226852416992
1700822873878843000,12.1908427734375,0.6368576288223267,1.9081788063049316,9.78989028930664
1700822873889058000,12.20105810546875,-0.02753331884741783,1.2880805730819702,10.181343078613281
1700822873899150000,12.211150146484375,-0.10175357013940811,1.2653355598449707,10.609905242919922
1700822873912269000,12.22426904296875,0.47644615173339844,1.657984733581543,10.831368446350098
1700822873928775000,12.24077490234375,0.6991068720817566,1.5957354307174683,10.097545623779297
1700822873938830000,12.250830078125,0.9373299479484558,1.4832079410552979,9.0859956741333
1700822873948723000,12.260722900390626,0.8667010068893433,1.3670891523361206,8.802282333374023
1700822873958654000,12.270654052734375,0.6560112833976746,1.3263877630233765,8.925583839416504
1700822873968930000,12.280929931640625,0.016759412363171577,2.562992811203003,9.460687637329102
1700822873978767000,12.29076708984375,0.6655880808830261,1.9381062984466553,9.218873977661133
1700822873988777000,12.30077685546875,0.9900023937225342,1.0534487962722778,10.17296314239502
1700822873998762000,12.310761962890625,0.6488286852836609,0.7122750282287598,10.788272857666016
1700822874008655000,12.320655029296875,0.4034229815006256,0.8068459630012512,10.632649421691895
1700822874018787000,12.330787109375,1.237802267074585,1.5179238319396973,9.320627212524414
1700822874029043000,12.34104296875,1.1635819673538208,1.2533645629882812,9.182960510253906
1700822874038767000,12.35076708984375,0.9768342971801758,1.2773065567016602,9.240421295166016
1700822874049157000,12.3611572265625,1.0307037830352783,1.5514427423477173,9.409213066101074
1700822874058766000,12.37076611328125,1.0235211849212646,1.6627731323242188,9.439140319824219
1700822874068741000,12.3807412109375,0.690727174282074,1.746570110321045,9.440337181091309
1700822874078951000,12.390950927734375,0.1735796183347702,1.9752163887023926,9.467870712280273
1700822874088841000,12.400841064453125,-0.05386953800916672,2.274491548538208,9.672574996948242
1700822874098788000,12.4107880859375,0.15682020783424377,2.2242133617401123,9.90122127532959
1700822874108840000,12.42083984375,0.6512228846549988,1.9776105880737305,10.111910820007324
1700822874118836000,12.4308359375,1.170764684677124,1.4496891498565674,10.286687850952148
1700822874128917000,12.4409169921875,1.2737152576446533,1.4197616577148438,10.255562782287598
1700822874138654000,12.450654052734375,0.9085995554924011,1.5322890281677246,10.111910820007324
1700822874148785000,12.460784912109375,0.5171475410461426,1.6424223184585571,9.9000244140625
1700822874158966000,12.470966064453124,0.669179379940033,1.400607943534851,9.568427085876465
1700822874168722000,12.480721923828124,1.0678139925003052,1.3000515699386597,9.08838939666748
1700822874178928000,12.49092822265625,1.0271124839782715,1.4532804489135742,8.927978515625
1700822874188812000,12.50081201171875,0.6787561774253845,1.6603789329528809,9.343372344970703
1700822874198988000,12.510988037109374,1.0211269855499268,1.5921441316604614,9.750386238098145
1700822874208821000,12.520821044921876,1.6962919235229492,1.258152961730957,9.93354320526123
1700822874218845000,12.530844970703125,1.9931728839874268,1.4305355548858643,10.02691650390625
1700822874228762000,12.54076220703125,2.0410568714141846,0.8810662031173706,9.467870712280273
1700822874238851000,12.55085107421875,1.6915035247802734,0.9612720012664795,8.967482566833496
1700822874248833000,12.5608330078125,0.8415619134902954,1.7764976024627686,9.091980934143066
1700822874258986000,12.570986083984375,1.4700398445129395,-0.4668693244457245,8.888473510742188
1700822874270033000,12.582032958984374,1.1061211824417114,0.2298433631658554,9.327810287475586
1700822874278832000,12.59083203125,1.3658920526504517,1.015141487121582,9.040505409240723
1700822874288893000,12.600892822265624,2.315192937850952,1.479616641998291,7.7847466468811035
1700822874298841000,12.610841064453124,1.8590975999832153,2.009932279586792,7.583633899688721
1700822874308918000,12.62091796875,0.6739677786827087,1.8531121015548706,8.008605003356934
1700822874318826000,12.630825927734374,0.2777273952960968,1.2270283699035645,7.91163969039917
1700822874328811000,12.64081103515625,0.19871874153614044,2.3247697353363037,10.831368446350098
1700822874338815000,12.65081494140625,1.0043675899505615,1.2617442607879639,13.597868919372559
1700822874348688000,12.66068798828125,3.1866824626922607,-0.8056488633155823,13.618219375610352
1700822874358889000,12.670888916015626,4.1874589920043945,-1.4951789379119873,11.289857864379883
1700822874368921000,12.680921142578125,3.2980127334594727,-1.4951789379119873,9.368511199951172
1700822874378903000,12.690903076171875,0.6979097723960876,0.6835445761680603,9.767146110534668
1700822874388932000,12.70093212890625,0.009576806798577309,0.10175357013940811,9.601945877075195
1700822874398884000,12.710884033203126,1.3611036539077759,-0.4381389021873474,8.857349395751953
1700822874408924000,12.720923828125,1.968033790588379,0.6488286852836609,9.214085578918457
1700822874419053000,12.731052978515624,1.580173134803772,1.6388310194015503,9.680954933166504
1700822874429016000,12.74101611328125,1.4724340438842773,2.029085874557495,9.787496566772461
1700822874438844000,12.750843994140626,1.9560627937316895,1.40180504322052,9.601945877075195
1700822874448878000,12.760878173828125,2.1547815799713135,0.645237386226654,9.36013126373291
1700822874458831000,12.7708310546875,1.6196774244308472,0.5386953949928284,9.339780807495117
1700822874468838000,12.780837890625,1.0893617868423462,0.2406172752380371,9.640253067016602
1700822874478925000,12.790925048828125,0.9576807022094727,0.6859387755393982,9.932345390319824
1700822874488995000,12.8009951171875,1.45806884765625,0.8451532125473022,9.794678688049316
1700822874498918000,12.81091796875,2.1990742683410645,0.9528923034667969,9.848548889160156
1700822874508885000,12.820885009765625,2.671929121017456,1.0618284940719604,9.498994827270508
1700822874518883000,12.830883056640625,1.9692308902740479,1.0043675899505615,8.671798706054688
1700822874528733000,12.84073291015625,0.8355764150619507,1.6065093278884888,8.191761016845703
1700822874538830000,12.850830078125,0.1867477297782898,0.4967968463897705,8.792705535888672
1700822874548777000,12.86077685546875,0.52552729845047,2.6180596351623535,9.412803649902344
1700822874558871000,12.87087109375,1.139639973640442,4.709394931793213,10.029311180114746
1700822874568740000,12.880739990234375,2.4827871322631836,-0.5997475385665894,10.516530990600586
1700822874578897000,12.89089697265625,1.8590975999832153,1.3275848627090454,11.577162742614746
1700822874588738000,12.900738037109376,1.2533645629882812,1.1647791862487793,11.683704376220703
1700822874598629000,12.910629150390625,1.533486247062683,-0.933738648891449,10.690110206604004
1700822874608782000,12.920781982421875,0.6248866319656372,0.5650315880775452,10.02571964263916
1700822874618868000,12.930867919921875,0.4800374507904053,1.8926163911819458,9.639056205749512
1700822874628882000,12.9408818359375,0.5805938839912415,2.296039342880249,8.735244750976562
1700822874638807000,12.95080712890625,1.2066776752471924,1.5298948287963867,10.187328338623047
1700822874648814000,12.96081396484375,1.6172832250595093,1.9476830959320068,9.551667213439941
1700822874658917000,12.970917236328125,1.258152961730957,2.5749640464782715,10.075998306274414
1700822874668900000,12.980900146484375,0.456095427274704,3.8307228088378906,9.339780807495117
1700822874678872000,12.9908720703125,2.2661118507385254,0.40462008118629456,9.8784761428833
1700822874688818000,13.00081787109375,1.015141487121582,1.0833762884140015,9.97065258026123
1700822874698821000,13.010821044921874,-0.09816227108240128,2.7281928062438965,8.898050308227539
1700822874709057000,13.02105712890625,0.28969839215278625,2.9460651874542236,9.033323287963867
1700822874719409000,13.031408935546875,1.0235211849212646,3.537432909011841,8.449137687683105
1700822874728919000,13.0409189453125,-0.304063618183136,5.457582950592041,8.798690795898438
1700822874738646000,13.05064599609375,-0.12449848651885986,6.433219909667969,8.323442459106445
