time,seconds_elapsed,z,y,x
1699090656643678500,0.139678466796875,-1.9125442504882812,-0.2057812213897705,0.38386720418930054
1699090656659691300,0.155691162109375,-0.9979591369628906,-0.7839808464050293,-0.48642510175704956
1699090656672821200,0.1688212890625,-0.5849599838256836,-0.989882230758667,-0.1404629349708557
1699090656684216600,0.180216552734375,-0.33896923065185547,-0.9587572813034058,0.3249984085559845
1699090656694705700,0.19070556640625,-0.3332843780517578,-0.7358835935592651,0.15784800052642822
1699090656704939300,0.200939208984375,-0.10061168670654297,-0.5175986289978027,0.0710863471031189
1699090656715151000,0.211151123046875,-0.9702568054199219,-0.5153892040252686,-0.03697389364242554
1699090656725206000,0.2212060546875,-0.9336585998535156,-0.5082440376281738,0.22189238667488098
1699090656735228200,0.231228271484375,0.3665609359741211,-0.47860658168792725,0.41990333795547485
1699090656745190100,0.241190185546875,0.022147178649902344,-0.5461231470108032,0.29184490442276
1699090656755226000,0.25122607421875,0.2706136703491211,-0.5049110651016235,0.25276845693588257
1699090656765180400,0.261180419921875,0.9891901016235352,-0.3953193426132202,0.19509446620941162
1699090656775175700,0.27117578125,1.4801359176635742,-0.3562612533569336,0.10615386068820953
1699090656785177300,0.28117724609375,1.565694808959961,-0.3025674819946289,0.10477083921432495
1699090656795206100,0.2912060546875,1.1788597106933594,-0.29978764057159424,0.16622291505336761
1699090656805175000,0.301175048828125,0.4647254943847656,-0.3692207336425781,0.12890568375587463
1699090656815153700,0.311153564453125,-0.41869163513183594,-0.5852906703948975,0.00034561753273010254
1699090656825154800,0.32115478515625,-1.289504051208496,-0.7616957426071167,-0.15938785672187805
1699090656835145500,0.3311455078125,-1.5437679290771484,-0.6204061508178711,0.5102519392967224
1699090656845237200,0.3412373046875,-0.8197965621948242,-0.4992743134498596,-0.7010533213615417
1699090656855333000,0.3513330078125,-1.0827617645263672,-0.5182440876960754,-0.4356246292591095
1699090656865189000,0.361189208984375,-1.5486793518066406,-0.5523248314857483,0.07059112191200256
1699090656875252500,0.37125244140625,-1.4643430709838867,-0.39089518785476685,0.36204609274864197
1699090656885186800,0.381186767578125,-0.8746232986450195,-0.2175973653793335,0.19895415008068085
1699090656895137800,0.3911376953125,-0.5383872985839844,-0.09122753143310547,0.27746450901031494
1699090656905112000,0.401112060546875,0.2628011703491211,-0.07631909847259521,-0.20754188299179077
1699090656915508500,0.411508544921875,0.2661600112915039,-0.2907768487930298,-0.07526421546936035
1699090656925302800,0.421302734375,-0.5817441940307617,-0.512086033821106,0.39388594031333923
1699090656935246300,0.431246337890625,-1.5628690719604492,-0.4416125416755676,1.0037916898727417
1699090656945256200,0.441256103515625,-2.3480515480041504,-0.3720529079437256,1.4580098390579224
1699090656955224000,0.45122412109375,-3.0222277641296387,-0.12259191274642944,2.3860745429992676
1699090656965177000,0.461177001953125,-2.180025100708008,0.09941911697387695,1.9685529470443726
1699090656975235600,0.471235595703125,1.9502134323120117,0.3051237463951111,1.4211889505386353
1699090656985130200,0.481130126953125,9.771930694580078,1.3136780261993408,4.2717742919921875
1699090656995124200,0.491124267578125,7.382391929626465,0.8016934394836426,3.8955087661743164
1699090657005098500,0.501098388671875,-0.5301628112792969,-0.6324199438095093,1.3728244304656982
1699090657015277300,0.51127734375,-1.634756088256836,-0.7734783887863159,-0.27297019958496094
1699090657025238000,0.521238037109375,0.744816780090332,-0.2848707437515259,-1.061339259147644
1699090657035171600,0.531171630859375,2.835188865661621,-0.47464531660079956,-0.7795190811157227
1699090657045126000,0.5411259765625,0.5522136688232422,-1.8827625513076782,-0.8427528142929077
1699090657055165000,0.5511650390625,-1.2208061218261719,-2.593096971511841,0.26917216181755066
1699090657065241900,0.561241943359375,-0.47362327575683594,-2.139179229736328,1.1715482473373413
1699090657075231000,0.57123095703125,-1.0940370559692383,-1.1764676570892334,2.893796682357788
1699090657085173500,0.581173583984375,-0.6315841674804688,-0.4151341915130615,3.4684243202209473
1699090657095149300,0.5911494140625,-0.2847318649291992,-0.32375168800354004,2.819136381149292
1699090657105122000,0.6011220703125,-0.5441570281982422,-0.24897682666778564,2.6595304012298584
1699090657115147000,0.61114697265625,-0.5344533920288086,-0.402227520942688,1.6580932140350342
1699090657125168600,0.621168701171875,0.34954357147216797,-0.29604005813598633,1.0292754173278809
1699090657135185200,0.63118505859375,0.643223762512207,-0.3500775098800659,1.290813684463501
1699090657145126700,0.641126708984375,0.7786731719970703,-0.6647436618804932,1.1018675565719604
1699090657155171300,0.65117138671875,1.0156774520874023,-0.748767614364624,1.0416128635406494
1699090657165122000,0.6611220703125,0.7219200134277344,-0.824127197265625,1.4604674577713013
1699090657175118600,0.67111865234375,0.122344970703125,-0.7667232751846313,1.5873485803604126
1699090657185105400,0.68110546875,-0.17827224731445312,-0.5964206457138062,1.4869024753570557
1699090657195088600,0.691088623046875,-0.6850547790527344,-0.3504757881164551,1.5092332363128662
1699090657205237200,0.7012373046875,-0.8183794021606445,-0.15529727935791016,1.4205138683319092
1699090657215202000,0.7112021484375,-1.0686006546020508,-0.04455757141113281,1.2756203413009644
1699090657225182200,0.72118212890625,-0.5912990570068359,-0.26508545875549316,0.7983818054199219
1699090657235170600,0.731170654296875,-0.5133037567138672,-0.5027360916137695,0.5166093707084656
1699090657245127700,0.741127685546875,-0.39523983001708984,-0.4898378849029541,0.2656594216823578
1699090657255166000,0.751166015625,0.22461986541748047,-0.4178309440612793,0.45942842960357666
1699090657265140500,0.761140380859375,0.7232627868652344,-0.3911254405975342,0.746671199798584
1699090657275182800,0.771182861328125,0.9955959320068359,-0.33219051361083984,0.8015779256820679
1699090657285151000,0.78115087890625,0.8793706893920898,-0.5645883083343506,0.8885096311569214
1699090657295157500,0.791157470703125,0.6028661727905273,-0.6121244430541992,0.311654657125473
1699090657305129700,0.801129638671875,-0.4305553436279297,-0.517707347869873,0.1186189353466034
1699090657315138300,0.81113818359375,-0.726933479309082,-0.3176267147064209,-0.2528560161590576
1699090657325171200,0.821171142578125,-0.7410192489624023,-0.21988272666931152,-0.4206261932849884
1699090657335171600,0.831171630859375,-0.7466192245483398,-0.10256719589233398,-0.050784289836883545
1699090657345116000,0.841115966796875,-0.5719404220581055,-0.4188377857208252,0.1532542109489441
1699090657355141400,0.851141357421875,-0.4636554718017578,-0.6201992034912109,0.1521647572517395
1699090657365144300,0.861144287109375,-0.05421257019042969,-0.3751647472381592,0.41217443346977234
1699090657375118000,0.8711181640625,0.15224266052246094,-0.4030733108520508,0.2739563584327698
1699090657385159200,0.8811591796875,0.18964767456054688,-0.3674018383026123,0.36604544520378113
1699090657395179500,0.891179443359375,0.09423446655273438,-0.42228269577026367,0.39475423097610474
1699090657405154800,0.90115478515625,-0.45693302154541016,-0.38814330101013184,0.4283708333969116
1699090657415191300,0.91119140625,-0.7900581359863281,-0.23988842964172363,0.2640131711959839
1699090657425230600,0.921230712890625,-0.9313802719116211,-0.1161198616027832,-0.0504816472530365
1699090657435458300,0.931458251953125,-0.7682266235351562,-0.09081554412841797,0.15003830194473267
1699090657445370000,0.9413701171875,-0.5576152801513672,-0.22702836990356445,0.3705574870109558
1699090657455319000,0.951319091796875,-0.2603006362915039,-0.5267529487609863,0.5246134996414185
1699090657465301500,0.961301513671875,-0.1171102523803711,-0.47704410552978516,0.3628929555416107
1699090657475271700,0.971271728515625,0.2078075408935547,-0.37704920768737793,0.28254926204681396
1699090657485278000,0.98127783203125,0.6208992004394531,-0.3252255916595459,0.25191330909729004
1699090657495243500,0.991243408203125,1.2051582336425781,-0.36864471435546875,0.6276834607124329
1699090657505271300,1.001271240234375,1.5746707916259766,-0.3261408805847168,0.31590646505355835
1699090657515285500,1.011285400390625,2.1048288345336914,-0.24573850631713867,0.28387555480003357
1699090657525297000,1.021296875,1.7110261917114258,-0.0967416763305664,0.25147974491119385
1699090657535369000,1.031368896484375,1.336090087890625,-0.17381763458251953,-0.05991703271865845
1699090657545239600,1.041239501953125,1.354783058166504,-0.6504974365234375,0.017856836318969727
1699090657555214800,1.05121484375,0.8790273666381836,-0.7713799476623535,0.9284523725509644
1699090657565223400,1.061223388671875,1.2739496231079102,-0.9627530574798584,1.2076082229614258
1699090657575200800,1.07120068359375,1.6902379989624023,-1.3768324851989746,1.0481675863265991
1699090657585220900,1.081220947265625,2.137335777282715,-1.4072484970092773,0.6346676349639893
1699090657595227000,1.091226806640625,2.5084877014160156,-1.623375654220581,-0.15680253505706787
1699090657605246000,1.101245849609375,2.555844306945801,-0.1276841163635254,-0.5250916481018066
1699090657615265000,1.11126513671875,2.6180591583251953,-0.46335649490356445,-0.6287549734115601
1699090657625281000,1.121281005859375,2.6268749237060547,-0.8559093475341797,0.27596521377563477
1699090657635370000,1.131369873046875,2.1498842239379883,-1.049830436706543,0.8311899900436401
1699090657645297400,1.14129736328125,1.9998583793640137,-0.7079086303710938,0.6877157688140869
1699090657655280600,1.15128076171875,1.3854598999023438,-0.7132563591003418,-0.16715896129608154
1699090657665280800,1.16128076171875,0.5101895332336426,-1.2652239799499512,-1.5894784927368164
1699090657675296000,1.1712958984375,0.12615489959716797,-1.1873979568481445,-1.8612885475158691
1699090657685282600,1.181282470703125,-0.22800254821777344,-0.3579592704772949,-1.49704909324646
1699090657695287300,1.191287353515625,0.37965965270996094,0.19016551971435547,-0.18243944644927979
1699090657705281500,1.201281494140625,2.815882682800293,-0.9562263488769531,-0.4711267948150635
1699090657715388400,1.211388427734375,3.5624146461486816,-2.0104169845581055,-0.4066123962402344
1699090657725385200,1.22138525390625,3.2410244941711426,-1.619232177734375,0.08168864250183105
1699090657735358000,1.23135791015625,2.838613510131836,-1.365382194519043,0.09040951728820801
1699090657745332500,1.24133251953125,2.3574771881103516,-1.8085503578186035,-0.36112189292907715
1699090657755377200,1.251377197265625,1.825082778930664,-2.0240535736083984,-0.7022150754928589
1699090657765314000,1.26131396484375,1.8456344604492188,-2.5185108184814453,-1.041353464126587
1699090657775483600,1.271483642578125,0.3022346496582031,-2.464850902557373,-0.6533576250076294
1699090657785614300,1.2816142578125,-0.5794703960418701,-2.379448413848877,-1.1191691160202026
1699090657795530800,1.29153076171875,-0.8583450317382812,-1.8531866073608398,-1.5863629579544067
1699090657805417700,1.301417724609375,0.08391571044921875,-1.3963208198547363,-1.5867624282836914
1699090657815346400,1.311346435546875,0.6125125885009766,-1.063157558441162,-0.8759218454360962
1699090657825330200,1.321330078125,1.9021313190460205,-1.0792999267578125,-0.40933048725128174
1699090657835309000,1.33130908203125,3.335599899291992,-1.2128796577453613,-0.07903695106506348
1699090657845369600,1.34136962890625,3.335869073867798,-0.709040641784668,0.07145309448242188
1699090657855388700,1.351388671875,3.071136474609375,-0.638493537902832,-0.7919460535049438
1699090657865331000,1.3613310546875,2.149639368057251,-0.40587615966796875,-1.722727656364441
1699090657875303400,1.371303466796875,1.244031548500061,0.09863853454589844,-2.1213486194610596
1699090657885220600,1.381220703125,0.8158599138259888,0.38640689849853516,-1.7281880378723145
1699090657895319300,1.3913193359375,0.9231283664703369,0.6554317474365234,-0.8265451192855835
1699090657905388300,1.40138818359375,0.27031970024108887,-1.0668964385986328,-0.1234515905380249
1699090657915384000,1.411384033203125,0.7677998542785645,-0.8482437133789062,0.16555213928222656
1699090657925352000,1.42135205078125,1.3047101497650146,-0.023645401000976562,0.1896606683731079
1699090657935332000,1.43133203125,1.5810948610305786,-0.05621528625488281,-0.7437866926193237
1699090657945310000,1.44131005859375,0.8675438761711121,-0.7475042343139648,-0.71863853931427
1699090657955287600,1.45128759765625,-0.174244225025177,-1.1626033782958984,-0.7692910432815552
1699090657965297200,1.461297119140625,-0.7374778985977173,-0.8221015930175781,-0.795589804649353
1699090657975364000,1.471364013671875,-0.6695656776428223,-1.0901718139648438,-0.9781240224838257
1699090657985325600,1.48132568359375,-1.355034589767456,-1.7504334449768066,-1.2613856792449951
1699090657995338800,1.4913388671875,-1.0063104629516602,-1.6922087669372559,-0.8228076696395874
1699090658005422300,1.50142236328125,-0.7420768737792969,-1.3761796951293945,-0.22372686862945557
1699090658015332600,1.51133251953125,-0.3880488872528076,-1.3289432525634766,0.07562720775604248
1699090658025405400,1.521405517578125,0.6523095369338989,-1.5056047439575195,0.18665039539337158
1699090658035342000,1.531342041015625,0.733110249042511,-1.743535041809082,-0.021265864372253418
1699090658045276200,1.541276123046875,0.42609429359436035,-1.9915685653686523,0.1079261302947998
1699090658055407000,1.551406982421875,0.06242227554321289,-2.0697312355041504,0.2860761284828186
1699090658065294600,1.561294677734375,-0.4186965227127075,-2.423312187194824,0.046753883361816406
1699090658075363300,1.57136328125,-0.7227747440338135,-2.499436855316162,-0.2858697772026062
1699090658085621500,1.58162158203125,0.02708578109741211,-2.3828983306884766,-0.7755544185638428
1699090658095475200,1.59147509765625,-0.3873288631439209,-1.8182077407836914,0.45918285846710205
1699090658105454000,1.6014541015625,0.7077409029006958,-1.8490777015686035,0.6849939227104187
1699090658115442200,1.611442138671875,0.8180032968521118,-1.8851842880249023,0.6064640283584595
1699090658125436400,1.6214365234375,0.9473954439163208,-1.921083927154541,0.39000412821769714
1699090658135411200,1.6314111328125,0.44339966773986816,-1.0937414169311523,0.5445894002914429
1699090658145420000,1.641419921875,0.04218721389770508,-0.8129081726074219,0.8751187324523926
1699090658155434000,1.65143408203125,-0.8335521221160889,-1.4739489555358887,0.28167879581451416
1699090658165435600,1.661435546875,-1.2233564853668213,-2.4663991928100586,-0.4335176944732666
1699090658175458800,1.671458740234375,-1.4292171001434326,-2.0531115531921387,-0.11935234069824219
1699090658185824300,1.68182421875,-1.049363613128662,-1.238947868347168,0.346238374710083
1699090658195649300,1.691649169921875,0.8529541492462158,-2.979494571685791,-0.8685690760612488
1699090658205556000,1.701555908203125,1.1693143844604492,-1.7743730545043945,0.11703652143478394
1699090658215539000,1.7115390625,0.3377859592437744,-0.9368448257446289,-1.5794916152954102
1699090658225502500,1.72150244140625,-0.9397642612457275,0.943110466003418,-0.10086947679519653
1699090658235426300,1.73142626953125,-0.9089248180389404,0.12290477752685547,-0.7872241735458374
1699090658245297200,1.741297119140625,-0.9730887413024902,-0.8543062210083008,-0.3765963912010193
1699090658255247000,1.7512470703125,-0.49938273429870605,-1.660914421081543,-0.45088261365890503
1699090658265210600,1.761210693359375,0.5432188510894775,-2.5372071266174316,-0.7995625734329224
1699090658275311400,1.771311279296875,0.19011759757995605,-2.1712703704833984,0.09193360805511475
1699090658285312300,1.781312255859375,0.6240308284759521,-1.3834714889526367,0.3854685127735138
1699090658295356700,1.791356689453125,-0.37894129753112793,-1.0441579818725586,-0.43591272830963135
1699090658305335800,1.801335693359375,-1.0821609497070312,-1.0110688209533691,-1.2576488256454468
1699090658315250400,1.81125048828125,-0.3387870788574219,-0.8050203323364258,-1.3218929767608643
1699090658325282300,1.8212822265625,1.6060287952423096,0.17744922637939453,-0.3234548270702362
1699090658335357200,1.831357177734375,2.041635274887085,0.8175315856933594,0.7050391435623169
1699090658345311000,1.84131103515625,2.9012558460235596,0.524688720703125,0.8043223023414612
1699090658355318000,1.851318115234375,3.5689961910247803,-0.36869192123413086,1.322912335395813
1699090658365256400,1.86125634765625,2.5996670722961426,-2.1261043548583984,0.4494377374649048
1699090658375296800,1.871296875,2.6184487342834473,-4.4650397300720215,-1.6695787906646729
1699090658385229300,1.881229248046875,2.920774221420288,-4.723072052001953,-1.5547871589660645
1699090658395326700,1.89132666015625,3.1815624237060547,-3.2834951877593994,0.7847745418548584
1699090658405342700,1.9013427734375,2.383176565170288,-1.4766860008239746,3.114480972290039
1699090658415523300,1.9115234375,3.0285730361938477,-0.33812570571899414,5.785854816436768
1699090658425443300,1.921443359375,4.3278961181640625,0.5385708808898926,7.627212047576904
1699090658435423500,1.931423583984375,3.9685566425323486,1.0379581451416016,8.639126777648926
1699090658445287400,1.941287353515625,1.446298599243164,1.747790813446045,9.994484901428223
1699090658455369200,1.951369140625,1.9321208000183105,2.8095383644104004,7.907382965087891
1699090658465706000,1.9617060546875,1.3843660354614258,2.9826440811157227,5.566040992736816
1699090658475521500,1.971521484375,-0.6033201217651367,3.7565975189208984,4.368958950042725
1699090658485407700,1.98140771484375,-1.5505342483520508,4.647895812988281,3.662900447845459
1699090658495313400,1.9913134765625,-0.4778280258178711,4.936305999755859,2.818124294281006
1699090658505197300,2.001197265625,0.8847723007202148,5.003908634185791,1.8511137962341309
1699090658515322600,2.011322509765625,1.9605097770690918,4.358166217803955,0.2910127639770508
1699090658525188400,2.021188232421875,2.7062907218933105,3.9009957313537598,-1.9581298828125
1699090658535131600,2.031131591796875,6.200121879577637,3.8321304321289062,-3.7521886825561523
1699090658545128700,2.041128662109375,8.607961654663086,4.573874473571777,-3.240096092224121
1699090658555134000,2.051134033203125,9.032268524169922,4.593011856079102,-2.2643256187438965
1699090658565233000,2.06123291015625,7.741447925567627,3.3261685371398926,-2.2701263427734375
1699090658575222000,2.071221923828125,5.088404655456543,2.804399013519287,-1.6454081535339355
1699090658585159400,2.081159423828125,1.9684042930603027,3.431270122528076,-0.12215089797973633
1699090658595142100,2.09114208984375,0.6394786834716797,4.516829490661621,1.8704137802124023
1699090658605093000,2.101093017578125,-0.21222448348999023,5.802867889404297,3.599437713623047
1699090658615159600,2.11115966796875,0.13291454315185547,6.713709354400635,3.5749707221984863
1699090658625132800,2.1211328125,-0.5584707260131836,6.5701751708984375,1.2585206031799316
1699090658635107300,2.131107421875,-0.7926163673400879,5.783676624298096,-2.488811492919922
1699090658645072600,2.14107275390625,0.12382078170776367,4.779412269592285,-4.909780979156494
1699090658655161900,2.151161865234375,1.573437213897705,4.262210845947266,-5.483452320098877
1699090658665103400,2.161103271484375,3.608583450317383,3.587249517440796,-5.56016731262207
1699090658675350300,2.171350341796875,4.489692211151123,2.566660165786743,-5.282565116882324
1699090658685252600,2.181252685546875,3.146214723587036,1.8318870067596436,-4.450180530548096
1699090658695197700,2.19119775390625,0.25310182571411133,1.7548673152923584,-2.7189950942993164
1699090658705218800,2.20121875,-2.2842893600463867,2.2658586502075195,-1.0023179054260254
1699090658715299300,2.21129931640625,-4.106461524963379,3.7441537380218506,1.006338119506836
1699090658725291800,2.221291748046875,-4.995246887207031,4.543979644775391,0.8669757843017578
1699090658735259400,2.23125927734375,-4.247069358825684,4.305655479431152,-1.1508584022521973
1699090658745322800,2.24132275390625,-2.152561664581299,3.6210808753967285,-3.30147647857666
1699090658755328300,2.251328369140625,-0.8332734107971191,3.291807174682617,-4.855437278747559
1699090658765490700,2.26149072265625,-0.49276232719421387,3.8390846252441406,-4.802706718444824
1699090658775409400,2.271409423828125,-0.3991260528564453,4.286623001098633,-3.6842474937438965
1699090658785366800,2.28136669921875,-0.7501602172851562,4.023361682891846,-2.2074966430664062
1699090658795338200,2.291338134765625,-1.9406177997589111,3.3802266120910645,-0.7170748710632324
1699090658805346000,2.301345947265625,-3.7760090827941895,2.972879409790039,0.24042654037475586
1699090658815450600,2.31145068359375,-5.380064010620117,3.1062850952148438,1.0225982666015625
1699090658825401900,2.32140185546875,-6.3842315673828125,3.9156484603881836,1.362307071685791
1699090658835385900,2.3313857421875,-6.147801399230957,4.816142559051514,0.9133315086364746
1699090658845380400,2.34138037109375,-4.877298831939697,5.868352890014648,1.0063910484313965
1699090658855386000,2.35138623046875,-4.587267875671387,5.26142692565918,1.2747039794921875
1699090658865466600,2.361466552734375,-4.497689247131348,4.330358505249023,2.0119309425354004
1699090658875434800,2.371434814453125,-4.825665473937988,3.8368306159973145,2.525050163269043
1699090658885401900,2.38140185546875,-4.795256614685059,3.381857395172119,3.0510683059692383
1699090658895445000,2.391445068359375,-4.74091911315918,3.148012161254883,3.0717477798461914
1699090658905455900,2.401455810546875,-4.790884017944336,3.2195281982421875,3.2532196044921875
1699090658915382500,2.411382568359375,-4.458475589752197,3.084017276763916,3.253236770629883
1699090658925387800,2.4213876953125,-4.031401634216309,3.4621543884277344,3.296807289123535
1699090658935390500,2.431390380859375,-3.230553150177002,3.3109521865844727,3.171036720275879
1699090658945443600,2.441443603515625,-2.9587562084198,2.8749332427978516,2.9355645179748535
1699090658955415800,2.451415771484375,-2.7098195552825928,2.313060760498047,2.8019442558288574
1699090658965364000,2.461364013671875,-2.2812905311584473,1.7327604293823242,2.6871848106384277
1699090658975379500,2.47137939453125,-1.7602182626724243,1.4482183456420898,2.641801357269287
1699090658985468200,2.48146826171875,-1.7554643154144287,1.2043800354003906,2.7025837898254395
1699090658995492000,2.4914921875,-2.0625834465026855,1.2250337600708008,3.3693907260894775
1699090659005435600,2.501435546875,-1.9454582929611206,1.3665084838867188,4.169344902038574
1699090659015516700,2.5115166015625,-1.0580062866210938,0.9515857696533203,4.20719051361084
1699090659025442800,2.52144287109375,-0.4909621477127075,0.5645198822021484,3.8159868717193604
1699090659035409000,2.531408935546875,-0.43671905994415283,0.5028543472290039,3.306030035018921
1699090659045452000,2.5414521484375,-0.17243921756744385,0.4573326110839844,2.748286247253418
1699090659055423500,2.551423583984375,0.3247426748275757,0.3123970031738281,2.057377576828003
1699090659065476400,2.561476318359375,0.9561352729797363,-0.12324047088623047,1.7822458744049072
1699090659075625200,2.571625244140625,1.4039316177368164,-0.5191898345947266,2.233027935028076
1699090659085472000,2.581471923828125,1.5340571403503418,-0.746006965637207,2.4224205017089844
1699090659095394000,2.59139404296875,1.2513607740402222,-0.5887918472290039,2.711599349975586
1699090659105345500,2.601345458984375,0.2568817138671875,-0.4719381332397461,4.180881500244141
1699090659115336200,2.611336181640625,-0.3262028694152832,-0.3045940399169922,5.614393711090088
1699090659125381600,2.621381591796875,-0.6323685646057129,-0.41825389862060547,5.808756351470947
1699090659135354400,2.631354248046875,-0.19735932350158691,-0.4678535461425781,4.783445358276367
1699090659145334800,2.641334716796875,0.6190168857574463,-0.07823467254638672,3.8604795932769775
1699090659155329300,2.651329345703125,2.5329372882843018,1.617630958557129,1.4624040126800537
1699090659165226800,2.661226806640625,3.931767225265503,1.6561908721923828,-0.18341636657714844
1699090659175271400,2.671271484375,4.468991279602051,1.2292556762695312,-1.9080920219421387
1699090659185278700,2.68127880859375,3.329716682434082,0.8735857009887695,-3.151456356048584
1699090659195299800,2.6912998046875,2.234797239303589,1.5812416076660156,-2.64499568939209
1699090659205292800,2.701292724609375,0.6322000026702881,2.7628049850463867,-1.9698504209518433
1699090659215293400,2.71129345703125,-0.8394160270690918,3.524812698364258,-1.5620701313018799
1699090659225294800,2.721294921875,-1.8891792297363281,4.457340240478516,-1.9090090990066528
1699090659235295700,2.731295654296875,-2.233027219772339,5.245211601257324,-2.11905574798584
1699090659245245400,2.741245361328125,-1.814199686050415,5.728034019470215,-1.9540162086486816
1699090659255305700,2.7513056640625,-1.3523712158203125,5.290776252746582,-2.0833792686462402
1699090659265486300,2.761486328125,-1.7319693565368652,4.014429092407227,-2.017733097076416
1699090659275422200,2.771422119140625,-2.4775657653808594,2.509861946105957,-1.6180775165557861
1699090659285379600,2.781379638671875,-2.872732639312744,1.0812873840332031,-0.6061782836914062
1699090659295352300,2.791352294921875,-2.6610107421875,0.4330129623413086,0.48728227615356445
1699090659305347000,2.80134716796875,-2.3565053939819336,0.4472060203552246,1.3019953966140747
1699090659315436000,2.81143603515625,-0.8766422271728516,0.48937129974365234,1.535436749458313
1699090659325403100,2.821403076171875,0.8548679351806641,-0.004241943359375,0.5842647552490234
1699090659335392500,2.831392578125,2.042238473892212,-0.9962830543518066,-0.4277534484863281
1699090659345367300,2.8413671875,3.4493887424468994,-2.065122127532959,-1.6635711193084717
1699090659355374000,2.8513740234375,3.1416523456573486,-2.5358142852783203,-1.2756695747375488
1699090659365445000,2.861445068359375,2.557469606399536,-2.4122400283813477,-0.5674605369567871
1699090659375390500,2.871390380859375,2.2828924655914307,-2.414824962615967,-0.1272726058959961
1699090659385360400,2.8813603515625,1.9276719093322754,-2.291963577270508,0.7402653694152832
1699090659395395600,2.8913955078125,1.9025468826293945,-1.4535021781921387,1.438948631286621
1699090659405364700,2.90136474609375,2.379974365234375,-0.5321059226989746,2.3507020473480225
1699090659415458300,2.911458251953125,2.543858528137207,-0.36789560317993164,1.724729061126709
1699090659425412000,2.921412109375,2.3616456985473633,-0.9626011848449707,1.4043827056884766
1699090659435386000,2.93138623046875,1.151374340057373,-0.8536548614501953,1.528275728225708
1699090659445248500,2.94124853515625,1.774869441986084,-0.9978117942810059,1.7538957595825195
1699090659455267300,2.951267333984375,2.2490997314453125,-1.682633876800537,1.2788805961608887
1699090659465196500,2.961196533203125,2.4409093856811523,-2.2322049140930176,-0.14571189880371094
1699090659475181800,2.971181884765625,2.2996668815612793,-3.127157688140869,-0.7137818336486816
1699090659485177900,2.981177734375,2.477651596069336,-3.4817237854003906,0.5228643417358398
1699090659495246800,2.991246826171875,1.7266449928283691,-3.595383644104004,0.407686710357666
1699090659505177900,3.001177734375,0.10395193099975586,-0.7684128284454346,2.065624475479126
1699090659515223000,3.01122314453125,-0.25757837295532227,1.1536579132080078,0.9889473915100098
1699090659525224400,3.021224365234375,2.2762656211853027,-1.0450561046600342,-0.8937711715698242
1699090659535645200,3.031645263671875,1.2236037254333496,-0.5938115119934082,-1.5383110046386719
1699090659545539600,3.04153955078125,3.494706153869629,-3.4878830909729004,1.0314087867736816
1699090659555495400,3.051495361328125,-8.960847854614258,-5.443953514099121,4.160077095031738
1699090659565429200,3.06142919921875,-5.267861366271973,2.296924114227295,6.5252180099487305
1699090659575324700,3.07132470703125,8.564537048339844,3.89298677444458,-0.4035353660583496
1699090659585403000,3.08140283203125,11.835371971130371,-2.0956952571868896,-10.387737274169922
1699090659595381000,3.091381103515625,8.844779014587402,-5.393455505371094,-9.694732666015625
1699090659605265400,3.101265380859375,5.655847072601318,-5.7439494132995605,-4.221745014190674
1699090659615220200,3.11122021484375,5.451382637023926,-4.757271766662598,-2.668057441711426
1699090659625145000,3.12114501953125,4.016908168792725,-0.9533038139343262,-1.9352302551269531
1699090659635201500,3.131201416015625,3.1219120025634766,1.978405475616455,0.38246870040893555
1699090659645273300,3.1412734375,3.9538044929504395,-0.36271095275878906,-0.8441119194030762
1699090659655281700,3.15128173828125,5.143630027770996,-3.607431173324585,-4.724783420562744
1699090659665299200,3.16129931640625,3.4581081867218018,-3.7840805053710938,-4.676308631896973
1699090659675303200,3.17130322265625,1.5341567993164062,-3.323028802871704,-2.629995346069336
1699090659685362200,3.181362060546875,-0.45738983154296875,-3.4906933307647705,-0.7925610542297363
1699090659695295500,3.19129541015625,-2.1261940002441406,-3.0761168003082275,-0.03947734832763672
1699090659705324800,3.20132470703125,-2.6460561752319336,-2.362389087677002,0.1244516372680664
1699090659715342300,3.21134228515625,-2.066709041595459,-2.5702648162841797,-0.6562423706054688
1699090659725318100,3.221318115234375,-1.9300899505615234,-2.812258720397949,-1.5221548080444336
1699090659735358200,3.231358154296875,-2.0017123222351074,-1.9902746677398682,-1.8253092765808105
1699090659745481500,3.2414814453125,-1.0367307662963867,-1.3993000984191895,-2.0440640449523926
1699090659755395800,3.251395751953125,0.3399324417114258,-1.4660472869873047,-2.3109512329101562
1699090659765366800,3.26136669921875,1.3919763565063477,-2.2163147926330566,-2.789440631866455
1699090659775360500,3.271360595703125,1.5870442390441895,-3.4401447772979736,-3.0686559677124023
1699090659785355300,3.281355224609375,1.4149513244628906,-2.8517589569091797,-1.290438175201416
1699090659795394000,3.29139404296875,1.3674345016479492,-1.920060634613037,-1.034985065460205
1699090659805372700,3.30137255859375,1.282289981842041,-1.3698673248291016,-1.2715754508972168
1699090659815367700,3.31136767578125,1.0925774574279785,-1.41770601272583,-1.1773548126220703
1699090659825383400,3.321383544921875,0.6621251106262207,-2.170685052871704,-0.7930116653442383
1699090659835354000,3.33135400390625,0.2990603446960449,-3.2683019638061523,-0.7068796157836914
1699090659845504500,3.34150439453125,0.1443014144897461,-3.9929537773132324,-0.7765707969665527
1699090659855432700,3.3514326171875,-0.023281574249267578,-4.045108795166016,-0.23327398300170898
1699090659865415000,3.361414794921875,0.010097503662109375,-3.8361451625823975,-0.0022144317626953125
1699090659875371500,3.37137158203125,0.2981119155883789,-3.2553346157073975,-0.6178936958312988
1699090659885313300,3.381313232421875,0.5184578895568848,-1.8469123840332031,-1.2342748641967773
1699090659895266600,3.3912666015625,0.567967414855957,-0.4527597427368164,-1.4711875915527344
1699090659905240300,3.401240234375,0.7218360900878906,0.028528213500976562,-1.3322863578796387
1699090659915220700,3.411220703125,0.48739051818847656,-0.06023454666137695,-0.9054830074310303
1699090659925391400,3.421391357421875,0.0022592544555664062,-0.23563575744628906,-0.588881254196167
1699090659935338800,3.4313388671875,-0.3674330711364746,-0.6253156661987305,-0.5242030620574951
1699090659945364700,3.44136474609375,-0.5068979263305664,-1.160355567932129,-0.7586085796356201
1699090659955325000,3.451324951171875,-0.7309279441833496,-1.3280143737792969,-1.0318286418914795
1699090659965425000,3.4614248046875,-0.45203447341918945,-1.2689499855041504,-1.3397133350372314
1699090659975446000,3.471446044921875,-0.223480224609375,-0.7268438339233398,-1.9064598083496094
1699090659985476900,3.481476806640625,-1.3263239860534668,0.9877300262451172,-0.5800769329071045
1699090659995470600,3.491470703125,-1.6352434158325195,2.1688528060913086,-0.6957604885101318
1699090660005523200,3.501523193359375,-2.3389792442321777,2.8536853790283203,-1.0117244720458984
1699090660015548700,3.511548583984375,-3.968442440032959,3.4375834465026855,-2.3021368980407715
1699090660025547800,3.5215478515625,-4.249993801116943,3.5934457778930664,-3.6199910640716553
1699090660035577300,3.531577392578125,-2.6035256385803223,2.9093894958496094,-2.982168674468994
1699090660045520600,3.541520751953125,0.164093017578125,2.119119167327881,-1.5861730575561523
1699090660055549000,3.551548828125,2.3491690158843994,1.9646859169006348,0.5685162544250488
1699090660065402400,3.56140234375,3.3095619678497314,1.5626778602600098,1.8053169250488281
1699090660075393300,3.571393310546875,2.981910228729248,1.842374324798584,2.030421257019043
1699090660085389600,3.5813896484375,-0.3108830451965332,0.4482126235961914,1.0486351251602173
1699090660095397400,3.5913974609375,-0.7981624603271484,0.7952241897583008,-0.5760648250579834
1699090660105440300,3.601440185546875,-0.19667387008666992,0.6712188720703125,-0.2575645446777344
1699090660115421700,3.611421630859375,0.2083449363708496,-0.09116840362548828,0.05737471580505371
1699090660125372700,3.62137255859375,1.8476276397705078,-0.1711111068725586,1.786612868309021
1699090660135379000,3.63137890625,2.6238765716552734,1.127089500427246,2.957174777984619
1699090660145382000,3.6413818359375,2.2691779136657715,2.452385902404785,3.0060789585113525
1699090660155384600,3.651384521484375,1.301654577255249,3.310072898864746,1.8325248956680298
1699090660165434000,3.66143408203125,0.6182820796966553,2.836711883544922,0.3509482145309448
1699090660175700200,3.6717001953125,0.15092754364013672,0.6842288970947266,-2.149301290512085
1699090660185547500,3.681547607421875,0.9948217868804932,-1.3709449768066406,-4.215978622436523
1699090660195464700,3.691464599609375,2.003180503845215,-2.451047420501709,-4.7493977546691895
1699090660205476400,3.701476318359375,2.3509483337402344,-2.992403030395508,-4.392829895019531
1699090660215437600,3.7114375,3.639418601989746,-2.7877697944641113,-3.1062264442443848
1699090660225341400,3.721341552734375,5.220364570617676,-2.5019116401672363,-1.7606070041656494
1699090660235365600,3.73136572265625,6.966849327087402,-2.0625643730163574,-0.39166808128356934
1699090660245369300,3.741369384765625,8.135589599609375,-1.568859577178955,0.3163905143737793
1699090660255301000,3.751301025390625,9.240385055541992,-0.8165435791015625,0.1625826358795166
1699090660265396000,3.76139599609375,9.673572540283203,0.13256549835205078,-0.5760509967803955
1699090660275376600,3.771376708984375,9.278849601745605,1.7277326583862305,-0.5890882015228271
1699090660285379300,3.78137939453125,6.626853942871094,3.5573911666870117,0.8709011077880859
1699090660295378200,3.791378173828125,-0.489241361618042,5.152682304382324,5.099362373352051
1699090660305352400,3.8013525390625,0.4669196605682373,4.1783599853515625,4.504605293273926
1699090660315415800,3.811415771484375,0.2854893207550049,2.8063716888427734,2.994439125061035
1699090660325479000,3.82147900390625,-0.019337177276611328,1.2829570770263672,1.9298747777938843
1699090660335390500,3.831390380859375,0.25092458724975586,0.40978145599365234,0.5358289480209351
1699090660345314300,3.841314208984375,0.23486328125,-0.6102676391601562,-0.567908525466919
1699090660356750600,3.85275048828125,0.16442203521728516,-1.5764555931091309,-0.8323938846588135
1699090660366041900,3.862041748046875,0.17196345329284668,-1.570845127105713,-0.8145033121109009
1699090660376063500,3.8720634765625,4.492064952850342,-0.9612369537353516,-1.3882769346237183
1699090660385659600,3.88165966796875,4.470251560211182,-0.9645662307739258,-1.3731372356414795
1699090660395449900,3.891449951171875,5.211581230163574,-1.2620010375976562,-1.8486082553863525
1699090660405389800,3.901389892578125,3.9231245517730713,-0.9903373718261719,-1.0996055603027344
1699090660415279900,3.91127978515625,3.0064005851745605,-0.7546195983886719,0.3260617256164551
1699090660425459000,3.921458984375,2.334496259689331,-0.5417985916137695,1.872412919998169
1699090660435598000,3.93159814453125,1.3168436288833618,-0.3589162826538086,2.981442928314209
1699090660445369600,3.94136962890625,0.4037497043609619,-0.256439208984375,3.190236806869507
1699090660455300900,3.95130078125,-0.3848433494567871,-0.9326562881469727,2.3979506492614746
1699090660465209300,3.961209228515625,-0.833331823348999,-1.880279541015625,1.4874248504638672
1699090660475303200,3.97130322265625,-1.2005250453948975,-1.7130990028381348,-0.17475879192352295
1699090660485275100,3.981275146484375,-1.625133752822876,-2.1262898445129395,-1.4942179918289185
1699090660495316500,3.99131640625,-1.024353265762329,-1.8988661766052246,-2.4297094345092773
1699090660505476900,4.001476806640625,-0.0023584365844726562,-0.9708251953125,-2.817269802093506
1699090660515451400,4.011451416015625,1.5145277976989746,0.3447723388671875,-2.91880202293396
1699090660525415700,4.021415771484375,2.772261619567871,1.1632623672485352,-2.374356269836426
1699090660535440400,4.0314404296875,2.4222118854522705,0.6210842132568359,-1.4966812133789062
1699090660545329200,4.0413291015625,3.5383875370025635,0.2933778762817383,-1.3606537580490112
1699090660555198500,4.051198486328125,2.6691830158233643,-1.7786002159118652,-1.6427464485168457
1699090660565181700,4.061181640625,2.527956485748291,-3.4528989791870117,-2.242492198944092
1699090660575185000,4.071184814453125,1.9915627241134644,-4.384738445281982,-2.149840831756592
1699090660585224000,4.081223876953125,0.636258602142334,-4.914702415466309,-1.33358895778656
1699090660595244000,4.091244140625,0.07580327987670898,-4.544236183166504,-0.223069429397583
1699090660605277000,4.10127685546875,-0.22000408172607422,-3.6244020462036133,0.32040536403656006
1699090660615294000,4.1112939453125,0.09314990043640137,-3.292954921722412,0.863233208656311
1699090660625342500,4.121342529296875,-2.0745797157287598,4.72567081451416,4.396509170532227
1699090660635337700,4.131337646484375,-0.16608715057373047,12.383121490478516,7.455187797546387
1699090660645336800,4.1413369140625,-2.4004316329956055,12.563763618469238,6.208014011383057
1699090660655343900,4.15134375,-1.934790849685669,6.553070068359375,1.5053436756134033
1699090660665329000,4.161328857421875,-0.5543758869171143,0.6703681945800781,-2.1180715560913086
1699090660675300900,4.17130078125,0.916106104850769,-1.6533584594726562,-2.455505847930908
1699090660685300500,4.181300537109375,2.596954822540283,-1.8269152641296387,-1.0329521894454956
1699090660695342300,4.19134228515625,3.0112464427948,-1.4832944869995117,-0.5655792355537415
1699090660705248000,4.201248046875,2.3735039234161377,-1.1976203918457031,-1.2143949270248413
1699090660715284000,4.211283935546875,0.046241044998168945,-0.9918928146362305,-1.1963939666748047
1699090660725306600,4.221306640625,-0.38387084007263184,-0.7628870010375977,-0.4601094722747803
1699090660735353300,4.231353271484375,0.7635235786437988,-0.177337646484375,-0.9135710000991821
1699090660745316000,4.241316162109375,1.7689368724822998,0.4902076721191406,-1.5599639415740967
1699090660755311600,4.2513115234375,2.937809944152832,1.7399330139160156,-1.3868083953857422
1699090660765308700,4.26130859375,4.100741863250732,2.645803451538086,-0.6856548190116882
1699090660775271000,4.27127099609375,4.416473865509033,2.694399833679199,-0.13009126484394073
1699090660785298000,4.2812978515625,4.764517784118652,2.616046905517578,-0.11512187868356705
1699090660795300900,4.29130078125,4.622244834899902,2.191988945007324,-0.9184701442718506
1699090660805332500,4.30133251953125,3.8537299633026123,1.7340927124023438,-1.3824528455734253
1699090660815348200,4.31134814453125,3.080857753753662,0.9892482757568359,-1.1331181526184082
1699090660825422600,4.321422607421875,2.2105233669281006,0.8704805374145508,0.19450075924396515
1699090660835453000,4.331452880859375,2.0195698738098145,1.4449386596679688,1.7126559019088745
1699090660845736400,4.341736328125,0.026796817779541016,1.0451898574829102,2.2622194290161133
1699090660855554300,4.35155419921875,-2.7163290977478027,0.734649658203125,1.2883723974227905
1699090660865461500,4.36146142578125,-3.7602813243865967,-0.2123727798461914,0.023531034588813782
1699090660875318800,4.37131884765625,-3.3814306259155273,-1.0278816223144531,-0.7369068264961243
1699090660885330000,4.381329833984375,-1.8949358463287354,-1.3703632354736328,-0.72147136926651
1699090660895334000,4.391333984375,-1.5201923847198486,-0.6922225952148438,-0.5081802606582642
1699090660905332000,4.40133203125,-1.364747166633606,0.755549430847168,1.0256235599517822
1699090660915391000,4.411390869140625,-0.8386456966400146,2.081789970397949,1.9541869163513184
1699090660925435400,4.421435302734375,-0.9364960193634033,3.1658248901367188,1.40359628200531
1699090660935405800,4.43140576171875,-0.8103286027908325,2.838120460510254,0.2476027011871338
1699090660945389300,4.441389404296875,-0.166359543800354,1.151632308959961,-0.5138725638389587
1699090660955392800,4.451392822265625,0.024127840995788574,0.4090566635131836,-0.7866107225418091
1699090660965436000,4.461435791015625,-0.6894639730453491,0.0025072097778320312,-0.7889658212661743
1699090660975456500,4.47145654296875,-1.4825819730758667,-0.19973278045654297,-0.9034790992736816
1699090660985399800,4.48139990234375,-0.7157773971557617,-0.20401763916015625,-1.290793538093567
1699090660995379500,4.49137939453125,-0.09080612659454346,-0.1857166290283203,-1.683309555053711
1699090661005364200,4.5013642578125,0.05044662952423096,-0.6656732559204102,-2.4431095123291016
1699090661015361000,4.511361083984375,0.5160229206085205,-1.7036213874816895,-3.582829475402832
1699090661025440500,4.5214404296875,1.3031009435653687,-1.193222999572754,-4.924536228179932
1699090661035391700,4.531391845703125,-0.13119244575500488,-0.5832624435424805,-4.533563613891602
1699090661045362400,4.541362548828125,-0.2706482410430908,-0.16256141662597656,-3.708926200866699
1699090661055346700,4.5513466796875,-0.2540438175201416,-0.03460216522216797,-2.7541117668151855
1699090661065383000,4.5613828125,-0.3053145408630371,0.0992593765258789,-2.35568904876709
1699090661075335400,4.57133544921875,-0.3372976779937744,0.6165781021118164,-2.1278557777404785
1699090661085355300,4.581355224609375,-0.4168652892112732,0.8771343231201172,-2.3213181495666504
1699090661095373600,4.59137353515625,-1.0431430339813232,1.0486783981323242,-1.9011881351470947
1699090661105376800,4.601376708984375,-1.9985156059265137,0.6771554946899414,-0.9657628536224365
1699090661115391000,4.611390869140625,-2.338413715362549,-0.20807456970214844,-0.7926974296569824
1699090661125462000,4.6214619140625,-1.9158278703689575,-1.088669776916504,-1.313468337059021
1699090661135428900,4.631428955078125,-1.0951491594314575,-0.8994293212890625,-1.5286139249801636
1699090661145412600,4.64141259765625,0.0013724565505981445,-0.28029346466064453,-1.2995145320892334
1699090661155398100,4.651398193359375,0.2936456799507141,0.38562870025634766,-0.7906368970870972
1699090661165439200,4.661439208984375,2.7884838581085205,1.0540313720703125,0.5889262557029724
1699090661175494100,4.671494140625,6.0355119705200195,1.282114028930664,1.7478235960006714
1699090661185442600,4.681442626953125,2.6313135623931885,-0.052623748779296875,0.7275010943412781
1699090661195406300,4.69140625,1.2887111902236938,-1.3609437942504883,-0.11279547214508057
1699090661205396700,4.701396728515625,2.045595645904541,-1.5885028839111328,-0.3130713105201721
1699090661215384800,4.711384765625,2.171109437942505,-1.090010643005371,-1.4724555015563965
1699090661225473500,4.7214736328125,2.2343220710754395,0.8621931076049805,-2.4667747020721436
1699090661235511800,4.73151171875,2.8106689453125,0.30320072174072266,-3.524287462234497
1699090661245450200,4.7414501953125,1.2714474201202393,-0.9846086502075195,-3.656099557876587
1699090661255423200,4.75142333984375,0.3746277093887329,-1.6802988052368164,-2.6219284534454346
1699090661265380600,4.761380615234375,0.12421207129955292,-2.433276653289795,-1.3950726985931396
1699090661275418400,4.77141845703125,0.7686071395874023,-2.301693916320801,-0.5176573395729065
1699090661285386800,4.78138671875,1.611717939376831,-1.6305418014526367,-0.014523684978485107
1699090661295369200,4.791369140625,1.6559698581695557,-1.5136737823486328,-1.06943941116333
1699090661305644300,4.801644287109375,1.7476515769958496,-1.7624855041503906,-1.961144208908081
1699090661315486200,4.811486328125,1.2545171976089478,-1.6226682662963867,-1.0981237888336182
1699090661325339600,4.821339599609375,1.2429256439208984,-1.4722270965576172,0.259944885969162
1699090661335296300,4.831296142578125,1.6567227840423584,-2.420319080352783,-0.1492624282836914
1699090661345233700,4.841233642578125,2.474022150039673,-2.4030275344848633,-0.11778181791305542
1699090661355182800,4.851182861328125,1.9144372940063477,-1.9842896461486816,-0.5998128056526184
1699090661365131500,4.861131591796875,2.3133163452148438,-1.5833511352539062,-1.370894432067871
1699090661375114800,4.87111474609375,2.105858325958252,-0.9648399353027344,-1.807734489440918
1699090661385140700,4.881140625,1.4171955585479736,-0.07866477966308594,-1.88360595703125
1699090661395304000,4.891303955078125,0.6722989082336426,-0.0916748046875,-1.9098808765411377
1699090661405851000,4.901850830078125,0.650071918964386,-1.6316051483154297,-1.9629924297332764
1699090661415581400,4.91158154296875,0.7225298881530762,-2.341738700866699,-2.1563868522644043
1699090661425432300,4.921432373046875,0.6618167161941528,-2.1046624183654785,-2.2640318870544434
1699090661435376000,4.931376220703125,0.48169922828674316,-1.3314847946166992,-2.1642086505889893
1699090661445422000,4.941422119140625,0.7374860048294067,-0.7620077133178711,-2.402205467224121
1699090661455422500,4.95142236328125,0.9197610020637512,-0.45522594451904297,-2.7009592056274414
1699090661465367800,4.961367919921875,1.5507173538208008,-0.3265419006347656,-2.3530118465423584
1699090661475257300,4.97125732421875,2.3367748260498047,-0.7990932464599609,-1.7631924152374268
1699090661485210600,4.981210693359375,2.4291205406188965,-1.7528362274169922,-2.147395133972168
1699090661495349200,4.991349365234375,2.4510698318481445,-2.5979971885681152,-4.027626991271973
1699090661505467600,5.001467529296875,1.5365524291992188,-2.8397421836853027,-4.698213577270508
1699090661515316700,5.011316650390625,-0.19976449012756348,-1.3416070938110352,-3.285733461380005
1699090661525192400,5.0211923828125,-1.815279483795166,0.6035451889038086,-0.565509021282196
1699090661535226000,5.03122607421875,-1.7949305772781372,1.5668840408325195,1.1474577188491821
1699090661545225200,5.04122509765625,0.03410625457763672,1.8644323348999023,1.5757092237472534
1699090661555273000,5.05127294921875,2.9891583919525146,2.274386405944824,0.789344847202301
1699090661565352000,5.06135205078125,3.504225015640259,2.1927404403686523,-1.8228614330291748
1699090661575246600,5.07124658203125,1.3355209827423096,1.154891014099121,-2.681097984313965
1699090661585334800,5.081334716796875,-0.05252277851104736,0.782318115234375,-2.0223097801208496
1699090661595227400,5.091227294921875,0.11093580722808838,1.4709463119506836,-1.2119245529174805
1699090661605296600,5.101296630859375,0.3339618444442749,2.2134838104248047,-0.49556317925453186
1699090661615349800,5.111349853515625,1.1728893518447876,3.1254472732543945,-0.1597573310136795
1699090661625315800,5.12131591796875,2.137279748916626,3.244898796081543,-0.5811558961868286
1699090661635321300,5.1313212890625,1.6093857288360596,2.1201248168945312,-1.5932412147521973
1699090661645235700,5.141235595703125,0.7917722463607788,0.9599990844726562,-1.7214158773422241
1699090661655295500,5.15129541015625,0.39824414253234863,1.642277717590332,-0.5500212907791138
1699090661665361700,5.161361572265625,0.48052847385406494,1.6216659545898438,0.0348513126373291
1699090661675371300,5.171371337890625,0.42063772678375244,-1.10723876953125,-2.4339101314544678
1699090661685329700,5.18132958984375,0.24807286262512207,-1.811741828918457,-3.432352066040039
1699090661695241000,5.191240966796875,-1.6836860179901123,-1.2407617568969727,-2.390657424926758
1699090661705298400,5.20129833984375,-1.7398732900619507,-2.326101779937744,-2.9660613536834717
1699090661715300000,5.211300048828125,-0.9094891548156738,-2.144028663635254,-2.1667442321777344
1699090661725311000,5.22131103515625,-0.025754094123840332,-0.02700328826904297,0.10031038522720337
1699090661735295000,5.231294921875,2.145402431488037,-0.04670143127441406,-0.8291452527046204
1699090661745283600,5.24128369140625,-0.43380117416381836,-0.5991411209106445,-2.017416477203369
1699090661755317200,5.251317138671875,-2.3795127868652344,0.03011035919189453,-0.6772803068161011
1699090661765312300,5.261312255859375,0.10010349750518799,-0.43946266174316406,-0.09615728259086609
1699090661775302700,5.271302734375,-0.7587579488754272,-0.8698596954345703,0.6192912459373474
1699090661785262800,5.281262939453125,-1.4360814094543457,-1.2114505767822266,-0.0941426157951355
1699090661795392500,5.291392578125,-1.6588287353515625,-1.5578498840332031,-1.395301103591919
1699090661805368300,5.301368408203125,-1.36525559425354,-1.6242256164550781,-2.5136263370513916
1699090661815278000,5.311278076171875,-1.7320319414138794,-2.284407615661621,-4.069080352783203
1699090661825265700,5.321265625,-1.9523112773895264,-3.023829936981201,-5.298673629760742
1699090661835327200,5.3313271484375,-0.9652619361877441,-3.5201597213745117,-5.2211456298828125
1699090661845298700,5.341298583984375,-0.4658084511756897,-3.524355411529541,-4.27677059173584
1699090661855393800,5.351393798828125,-1.1704717874526978,-3.568723678588867,-3.3792665004730225
1699090661865641000,5.361640869140625,-0.8922761678695679,-2.97420597076416,-2.092639446258545
1699090661875477500,5.3714775390625,-0.42991116642951965,-1.6346197128295898,-1.2937687635421753
1699090661885427200,5.38142724609375,0.6436697244644165,0.027419090270996094,-0.45347094535827637
1699090661895517200,5.39151708984375,0.47492164373397827,-0.2806367874145508,-0.6536157131195068
1699090661905478100,5.40147802734375,-1.1068787574768066,-2.5946483612060547,-3.1877570152282715
1699090661915460000,5.411460205078125,0.03276538848876953,-3.40396785736084,-5.191562652587891
1699090661925396000,5.42139599609375,0.4956166744232178,-3.9579195976257324,-5.027953624725342
1699090661935475500,5.431475341796875,1.1592729091644287,-3.549607276916504,-3.7807931900024414
1699090661945431300,5.441431396484375,1.537034273147583,-2.699958324432373,-3.690131664276123
1699090661955475200,5.45147509765625,1.928759217262268,0.10439395904541016,-2.766148090362549
1699090661965494500,5.46149462890625,1.3285692930221558,1.309610366821289,-1.2497271299362183
1699090661975394800,5.471394775390625,0.597334623336792,1.9820899963378906,0.5845186114311218
1699090661985353000,5.48135302734375,0.11901915073394775,2.433319091796875,1.5350732803344727
1699090661995341600,5.491341552734375,0.6426770687103271,2.3451967239379883,1.2574560642242432
1699090662005321200,5.5013212890625,1.1186065673828125,1.583846092224121,0.8076952695846558
1699090662015345200,5.51134521484375,1.0055501461029053,0.744140625,-0.07869625091552734
1699090662025347600,5.52134765625,0.7685656547546387,0.45671939849853516,-0.33523768186569214
1699090662035332400,5.531332275390625,0.9132734537124634,1.2196531295776367,-0.9524301886558533
1699090662045266200,5.54126611328125,0.818759560585022,2.458026885986328,-1.0298142433166504
1699090662055221500,5.551221435546875,0.7075871229171753,3.5445337295532227,-1.5571024417877197
1699090662065290200,5.561290283203125,0.9493004083633423,2.639944076538086,-2.3215792179107666
1699090662075330000,5.571330078125,0.582919716835022,1.1517877578735352,-2.6109330654144287
1699090662085384200,5.58138427734375,0.675278902053833,0.06555747985839844,-2.391597032546997
1699090662095378400,5.59137841796875,0.4870072603225708,-0.8331012725830078,-1.676071286201477
1699090662105397800,5.601397705078125,0.2598912715911865,-1.7378382682800293,-1.1030330657958984
1699090662115372800,5.611372802734375,0.4693535566329956,-2.5091962814331055,-0.8577228784561157
1699090662125357800,5.62135791015625,0.5088421106338501,-3.003819465637207,-1.366795539855957
1699090662135385000,5.631385009765625,0.7234808206558228,-2.7812252044677734,-1.7562285661697388
1699090662145397000,5.64139697265625,0.7343225479125977,-1.7333588600158691,-1.3947391510009766
1699090662155433500,5.65143359375,0.00904548168182373,-0.4528675079345703,-0.09541898965835571
1699090662165409300,5.6614091796875,-1.0280729532241821,-0.2699928283691406,0.4953796863555908
1699090662175402500,5.671402587890625,0.4288449287414551,-0.9086933135986328,0.17330679297447205
1699090662185404400,5.681404296875,1.5173680782318115,-0.9202442169189453,0.004425525665283203
1699090662195394600,5.69139453125,1.3156776428222656,-0.7362461090087891,0.28393328189849854
1699090662205411800,5.701411865234375,0.5448702573776245,-0.5921459197998047,0.6627190709114075
1699090662215423000,5.711423095703125,-0.2892693281173706,-0.6689386367797852,0.3543446660041809
1699090662225393400,5.721393310546875,-0.22493809461593628,-0.6771402359008789,-0.31567686796188354
1699090662235389200,5.73138916015625,0.11425769329071045,-0.40079498291015625,-1.0976365804672241
1699090662245396700,5.741396728515625,-0.032676517963409424,0.031996726989746094,-1.2282240390777588
1699090662255377400,5.75137744140625,-0.5680272579193115,0.5149965286254883,-0.890648603439331
1699090662265421000,5.761421142578125,0.3319430351257324,0.8702545166015625,-0.7259911298751831
1699090662275403000,5.771403076171875,0.27356791496276855,0.7238435745239258,-1.3858027458190918
1699090662285317000,5.781317138671875,0.29077744483947754,0.7956533432006836,-1.6851623058319092
1699090662295278600,5.791278564453125,0.3969224691390991,0.907322883605957,-1.4482791423797607
1699090662305276700,5.801276611328125,-0.02742636203765869,0.957489013671875,-0.9788385629653931
1699090662315240000,5.811239990234375,-0.5223380923271179,0.9982137680053711,-0.6239297389984131
1699090662325172000,5.821171875,-0.7108493447303772,0.9927492141723633,-0.5311126708984375
1699090662335219500,5.831219482421875,-0.11550617218017578,0.9636354446411133,-0.5112786293029785
1699090662345163300,5.841163330078125,0.36500704288482666,1.0572023391723633,-0.2069704532623291
1699090662355135700,5.8511357421875,-0.2992015480995178,1.0949525833129883,-0.05905282497406006
1699090662365176300,5.86117626953125,-0.6957055330276489,1.1115303039550781,-0.02760171890258789
1699090662375202600,5.87120263671875,-0.4007207751274109,1.050938606262207,0.08140277862548828
1699090662385261800,5.88126171875,-0.07164132595062256,0.8445558547973633,0.2052246332168579
1699090662395338500,5.89133837890625,-0.2827005386352539,0.5353059768676758,0.3289942741394043
1699090662405264600,5.9012646484375,-0.6796668767929077,0.17116641998291016,0.35076355934143066
1699090662415295700,5.911295654296875,-0.6950117945671082,-0.09203052520751953,0.3230397701263428
1699090662425194000,5.921194091796875,-0.9463099837303162,-0.1653738021850586,0.3090357780456543
1699090662435234600,5.931234619140625,-0.6663549542427063,-0.27825069427490234,0.20245587825775146
1699090662445201200,5.941201171875,-0.5424719452857971,-0.4342613220214844,-0.016666889190673828
1699090662455140000,5.95114013671875,-0.7451052665710449,-0.5667514801025391,-0.07529854774475098
1699090662465099500,5.961099609375,-0.8364163637161255,-0.655024528503418,0.005934715270996094
1699090662475202300,5.971202392578125,-0.7335293292999268,-0.6701221466064453,0.15545856952667236
1699090662485283600,5.98128369140625,-0.5179834365844727,-0.6822490692138672,0.2809460163116455
1699090662495284200,5.9912841796875,-0.5025047063827515,-0.6456995010375977,0.33132827281951904
1699090662505207600,6.00120751953125,-0.5777045488357544,-0.5316057205200195,0.2788318395614624
1699090662515238000,6.01123779296875,-0.6236743927001953,-0.31731128692626953,0.27282702922821045
1699090662525295900,6.0212958984375,-0.9850819110870361,-0.1846914291381836,0.07296609878540039
1699090662535295500,6.03129541015625,-0.2250310182571411,-0.34152984619140625,-0.3172929286956787
1699090662545292800,6.041292724609375,0.19119417667388916,-0.5536537170410156,-0.8021831512451172
1699090662555271400,6.051271484375,-1.0331021547317505,0.06133556365966797,-0.6473407745361328
1699090662565285000,6.06128515625,-0.517924427986145,0.2869443893432617,-0.7106711864471436
1699090662575311000,6.07131103515625,0.28156423568725586,0.6243791580200195,-0.5917220115661621
1699090662585304600,6.0813046875,-1.1395868062973022,1.2315349578857422,0.0750269889831543
1699090662595295200,6.091295166015625,-2.581305503845215,2.130586624145508,1.8043686151504517
1699090662605295000,6.101295166015625,2.477958917617798,0.9719657897949219,0.9978870153427124
1699090662615292200,6.111292236328125,3.632143974304199,-1.4621896743774414,-1.1854853630065918
1699090662625305000,6.12130517578125,-4.444240093231201,-0.925877571105957,-1.7561562061309814
1699090662635307500,6.1313076171875,-1.6789169311523438,-0.2364645004272461,-1.0227751731872559
1699090662645294800,6.141294921875,5.065627574920654,-0.5324516296386719,0.35042738914489746
1699090662655292000,6.1512919921875,2.645381212234497,-0.5746259689331055,1.4128533601760864
1699090662665358300,6.1613583984375,-2.8859243392944336,-0.932103157043457,2.172022581100464
1699090662675241700,6.17124169921875,-2.6722633838653564,-0.33001708984375,1.5019164085388184
1699090662685205200,6.181205322265625,-2.1456103324890137,0.9070940017700195,0.890148401260376
1699090662695270100,6.191270263671875,-0.5803729295730591,1.1250782012939453,0.7588473558425903
1699090662705219000,6.201218994140625,0.5942138433456421,0.6497678756713867,0.0901498794555664
1699090662715247000,6.2112470703125,-0.23991525173187256,-0.27641963958740234,-0.44588303565979004
1699090662725297000,6.221296875,-1.223311424255371,-1.2755537033081055,-0.916968822479248
1699090662735276000,6.231276123046875,-1.2513796091079712,-1.043442726135254,-0.6583094596862793
1699090662745288000,6.241287841796875,-1.1574021577835083,-0.4491596221923828,-0.32778120040893555
1699090662755237400,6.2512373046875,-0.982417643070221,0.029412269592285156,-0.1594839096069336
1699090662765321700,6.26132177734375,-0.4196960926055908,0.03818702697753906,-0.16618108749389648
1699090662775218400,6.271218505859375,-0.7047936916351318,0.2109079360961914,-0.11573386192321777
1699090662785381000,6.281381103515625,-0.5320131182670593,0.42201995849609375,-0.1018209457397461
1699090662795321000,6.291321044921875,-0.17261691391468048,0.5759782791137695,-0.2290353775024414
1699090662805308700,6.30130859375,0.47875937819480896,0.4778604507446289,-0.5406110286712646
1699090662815358700,6.311358642578125,0.18942221999168396,0.4294443130493164,-0.5579359531402588
1699090662825310500,6.321310546875,0.042446814477443695,0.4368419647216797,-0.5093123912811279
1699090662835353000,6.33135302734375,0.15956249833106995,0.4553108215332031,-0.6490299701690674
1699090662845395200,6.341395263671875,0.20829641819000244,0.5143613815307617,-0.7928926944732666
1699090662855327500,6.351327392578125,0.32586395740509033,0.6947908401489258,-0.84720778465271
1699090662865323800,6.36132373046875,0.8657807111740112,1.032175064086914,-0.9465162754058838
1699090662875274500,6.3712744140625,1.1912559270858765,0.921452522277832,-1.2963237762451172
1699090662885294600,6.381294677734375,1.3156530857086182,0.6840972900390625,-1.6757502555847168
1699090662895357000,6.39135693359375,1.007954478263855,0.5951719284057617,-1.7329120635986328
1699090662905262300,6.401262451171875,1.168105125427246,0.7554550170898438,-1.4716770648956299
1699090662915391700,6.411391845703125,1.4188246726989746,0.8794097900390625,-1.1428437232971191
1699090662925386200,6.42138623046875,1.650217890739441,0.630157470703125,-0.9833884239196777
1699090662935377700,6.431377685546875,1.592458963394165,0.19639110565185547,-0.7559611797332764
1699090662945357300,6.441357421875,0.9966005086898804,-0.08740520477294922,-0.1652376651763916
1699090662955264800,6.4512646484375,0.21293197572231293,-0.3419227600097656,0.2929039001464844
1699090662965367800,6.461367919921875,0.07578590512275696,-0.4483156204223633,0.5750830173492432
1699090662975360500,6.471360595703125,0.028897583484649658,-0.5042514801025391,0.7493722438812256
1699090662985348000,6.48134814453125,-0.3622705936431885,-0.5688295364379883,1.0630851984024048
1699090662995345200,6.49134521484375,-0.5989771485328674,-0.6921482086181641,1.2569100856781006
1699090663005392600,6.501392578125,-0.4843024015426636,-1.0033159255981445,0.8758974075317383
1699090663015374300,6.511374267578125,-0.23204264044761658,-1.4118075370788574,0.262615442276001
1699090663025429800,6.5214296875,-0.4700765907764435,-1.7452197074890137,-0.4093441963195801
1699090663035405300,6.5314052734375,-0.41375792026519775,-1.8664541244506836,-0.7812306880950928
1699090663045542700,6.541542724609375,-0.2924959361553192,-1.762251377105713,-0.8578300476074219
1699090663055374300,6.551374267578125,-0.4796457886695862,-1.480760097503662,-0.6090905666351318
1699090663065441800,6.56144189453125,-0.8708306550979614,-1.1908893585205078,-0.3953104019165039
1699090663075483400,6.5714833984375,-1.0802406072616577,-0.8209733963012695,-0.0556187629699707
1699090663085432600,6.5814326171875,-0.9723281860351562,-0.3397550582885742,0.25332212448120117
1699090663095403800,6.59140380859375,-0.9740744829177856,0.18140220642089844,0.420196533203125
1699090663105299500,6.601299560546875,-1.001896619796753,0.583287239074707,0.5094258785247803
1699090663115315700,6.611315673828125,-0.9523919820785522,0.6382732391357422,0.23770618438720703
1699090663125417000,6.6214169921875,-0.7246677279472351,0.5618228912353516,-0.21663951873779297
1699090663135403000,6.631403076171875,-0.6552925705909729,0.6765079498291016,-0.18488597869873047
1699090663145389000,6.64138916015625,-0.80958092212677,0.4753684997558594,-0.5393216609954834
1699090663155294000,6.6512939453125,-0.4488198757171631,0.2684621810913086,-0.54085373878479
1699090663165338000,6.661338134765625,-0.3691846430301666,0.21825695037841797,-0.4798288345336914
1699090663175362000,6.671362060546875,-0.34192049503326416,0.2398996353149414,-0.4543421268463135
1699090663185374500,6.68137451171875,-0.2783609926700592,0.0022716522216796875,-0.5424504280090332
1699090663195503900,6.69150390625,-0.13959434628486633,-0.23802947998046875,-0.6800222396850586
1699090663205411300,6.701411376953125,0.4290522038936615,-0.22898578643798828,-0.901879072189331
1699090663215298300,6.71129833984375,0.5384767651557922,-0.29433441162109375,-0.9808595180511475
1699090663225305600,6.7213056640625,0.34130147099494934,-0.48318004608154297,-1.0965619087219238
1699090663235276300,6.7312763671875,0.400273859500885,-0.6026430130004883,-1.0634913444519043
1699090663245207000,6.74120703125,0.48408669233322144,-0.6618146896362305,-0.7921414375305176
1699090663255160600,6.75116064453125,0.3598234951496124,-0.6262884140014648,-0.41998291015625
1699090663265168400,6.76116845703125,0.15370413661003113,-0.5932092666625977,-0.0745840072631836
1699090663275148000,6.77114794921875,0.07877309620380402,-0.4686717987060547,0.26566028594970703
1699090663285115600,6.78111572265625,0.055262744426727295,-0.30577945709228516,0.458904504776001
1699090663295173400,6.79117333984375,0.1432812213897705,-0.19758224487304688,0.32184410095214844
1699090663305229000,6.80122900390625,0.297287255525589,-0.11542701721191406,0.053865909576416016
1699090663315251500,6.81125146484375,0.28536152839660645,-0.0355377197265625,-0.16356325149536133
1699090663325180200,6.82118017578125,0.13740210235118866,0.1130514144897461,-0.23919343948364258
1699090663335215600,6.831215576171875,-0.03283727169036865,0.3135089874267578,-0.15881061553955078
1699090663345257200,6.84125732421875,-0.1115802675485611,0.38265323638916016,-0.20354604721069336
1699090663355222300,6.85122216796875,-0.0887567326426506,0.21988487243652344,-0.40566110610961914
1699090663365177600,6.861177490234375,-0.015426114201545715,-0.005782127380371094,-0.5301775932312012
1699090663375178200,6.87117822265625,-0.0440729483962059,-0.17867374420166016,-0.5652561187744141
1699090663385174500,6.881174560546875,-0.09100449830293655,-0.32114410400390625,-0.5390210151672363
1699090663395171300,6.89117138671875,-0.034833118319511414,-0.42871665954589844,-0.5424981117248535
1699090663405175600,6.901175537109375,0.16867198050022125,-0.5909357070922852,-0.5333137512207031
1699090663415229000,6.91122900390625,0.24784165620803833,-0.7724804878234863,-0.5293188095092773
1699090663425175000,6.921175048828125,0.3221016526222229,-0.7749028205871582,-0.4160137176513672
1699090663435264500,6.931264404296875,0.46030956506729126,-0.5323982238769531,-0.061646461486816406
1699090663445277200,6.941277099609375,0.27627867460250854,-0.058152198791503906,0.41762542724609375
1699090663455247000,6.9512470703125,-0.12165859341621399,0.5081195831298828,0.5903074741363525
1699090663465206000,6.9612060546875,-0.15185002982616425,0.9585037231445312,0.507373571395874
1699090663475270700,6.971270751953125,0.14699555933475494,1.3709077835083008,0.3126382827758789
1699090663485235700,6.981235595703125,0.5150189995765686,1.5166845321655273,0.07184553146362305
1699090663495268900,6.991268798828125,0.77425217628479,1.4483404159545898,-0.07063722610473633
1699090663505280500,7.001280517578125,0.88260817527771,1.2671899795532227,-0.05093050003051758
1699090663515326700,7.01132666015625,0.7872770428657532,1.0019168853759766,0.1596236228942871
1699090663525353500,7.021353515625,0.875310480594635,0.9440174102783203,0.36594438552856445
1699090663535310600,7.031310546875,0.916225254535675,0.7879371643066406,0.5108554363250732
1699090663545340000,7.04133984375,0.9213879704475403,0.5973501205444336,0.5920279026031494
1699090663555307000,7.05130712890625,0.7299246191978455,0.4085397720336914,0.5992946624755859
1699090663565400000,7.061400146484375,0.3861907124519348,0.24030399322509766,0.5105414390563965
1699090663575433500,7.07143359375,0.38381022214889526,-0.027792930603027344,0.4511566162109375
1699090663585433900,7.081433837890625,0.5564525723457336,-0.3205299377441406,0.48474836349487305
1699090663595446300,7.0914462890625,0.3807224631309509,-0.6630210876464844,0.43642258644104004
1699090663605693700,7.101693603515625,0.021817564964294434,-0.9514427185058594,0.2962462902069092
1699090663615441400,7.11144140625,-0.14659839868545532,-1.0762481689453125,0.23563599586486816
1699090663625308200,7.12130810546875,-0.08653408288955688,-1.0554265975952148,0.2579519748687744
1699090663635228200,7.131228271484375,0.09286266565322876,-1.0159540176391602,0.3363075256347656
1699090663645189600,7.141189697265625,0.39616936445236206,-0.912419319152832,0.4873015880584717
1699090663655166200,7.151166259765625,0.6942047476768494,-0.8050241470336914,0.6154987812042236
1699090663665187600,7.1611875,0.6741855144500732,-0.6090784072875977,0.7669510841369629
1699090663675194400,7.1711943359375,0.4708572030067444,-0.38434600830078125,0.8162691593170166
1699090663685314600,7.181314453125,0.2084706425666809,-0.16180801391601562,0.733546257019043
1699090663695255300,7.19125537109375,-0.012264728546142578,0.08987140655517578,0.6804258823394775
1699090663705375200,7.201375244140625,0.004053652286529541,0.3290519714355469,0.6283175945281982
1699090663715335200,7.211335205078125,0.2256336808204651,0.4931678771972656,0.6072640419006348
1699090663725319200,7.221319091796875,0.4812818765640259,0.5038175582885742,0.6802308559417725
1699090663735301600,7.231301513671875,0.6046913862228394,0.3582744598388672,0.8647406101226807
1699090663745229300,7.241229248046875,0.5590832233428955,0.12278938293457031,1.1169629096984863
1699090663755312600,7.251312744140625,0.36026692390441895,-0.15241146087646484,1.2404441833496094
1699090663765325800,7.261325927734375,0.2008603811264038,-0.38068485260009766,1.0016441345214844
1699090663775287800,7.271287841796875,0.11244040727615356,-0.6330204010009766,0.6530401706695557
1699090663785292500,7.28129248046875,0.058026671409606934,-0.8426008224487305,0.2525825500488281
1699090663795309800,7.291309814453125,0.08105504512786865,-0.8730859756469727,0.03234720230102539
1699090663805581300,7.301581298828125,0.23245352506637573,-0.7748508453369141,0.09279060363769531
1699090663815454200,7.3114541015625,0.3040829300880432,-0.5858592987060547,0.38159942626953125
1699090663825393700,7.3213935546875,0.2443637251853943,-0.24792957305908203,0.8567056655883789
1699090663835318300,7.331318359375,0.18153178691864014,-0.16899394989013672,0.7468056678771973
1699090663845309200,7.34130908203125,0.17376554012298584,-0.0008831024169921875,0.6653351783752441
1699090663855598600,7.3515986328125,0.08993130922317505,0.24007701873779297,0.7068390846252441
1699090663865453300,7.361453369140625,-0.0296747088432312,0.5512123107910156,0.8335304260253906
1699090663875392800,7.371392822265625,-0.10507309436798096,0.8170061111450195,1.0566368103027344
1699090663885335300,7.381335205078125,-0.12363046407699585,0.9237451553344727,1.2118090391159058
1699090663895378700,7.391378662109375,-0.14899319410324097,0.8875856399536133,1.1628972291946411
1699090663905578200,7.401578125,-0.10532820224761963,0.72760009765625,0.8568456172943115
1699090663915458000,7.4114580078125,0.12114530801773071,0.511871337890625,0.35985612869262695
1699090663925399600,7.421399658203125,0.261521577835083,0.3526287078857422,-0.19216299057006836
1699090663935405800,7.43140576171875,0.2155553102493286,0.31966114044189453,-0.6115322113037109
1699090663945367800,7.441367919921875,0.04935997724533081,0.3638629913330078,-0.8692691326141357
1699090663955366400,7.451366455078125,-0.08522093296051025,0.5037469863891602,-0.8869414329528809
1699090663965374200,7.461374267578125,-0.05361706018447876,0.5310287475585938,-0.8794131278991699
1699090663975417000,7.4714169921875,-0.062037646770477295,0.5552873611450195,-0.7425994873046875
1699090663985482500,7.481482421875,-0.09137976169586182,0.5282201766967773,-0.47826695442199707
1699090663995448300,7.4914482421875,0.029121458530426025,0.46991825103759766,-0.21282434463500977
1699090664005440300,7.501440185546875,0.24772536754608154,0.33864402770996094,-0.03045511245727539
1699090664015432200,7.51143212890625,0.470427930355072,0.20469188690185547,0.14377498626708984
1699090664025426000,7.521426025390625,0.4883986711502075,0.06778717041015625,0.3598973751068115
1699090664035362000,7.531362060546875,0.5154051780700684,-0.040938377380371094,0.5881948471069336
1699090664045465000,7.541465087890625,0.4280894994735718,-0.10614681243896484,0.8761992454528809
1699090664055785500,7.551785400390625,0.23718929290771484,-0.20147991180419922,0.8659921884536743
1699090664065665800,7.561665771484375,0.23906946182250977,-0.2924690246582031,0.7237026691436768
1699090664075512300,7.57151220703125,0.3274242877960205,-0.31284618377685547,0.5231454372406006
1699090664085445600,7.581445556640625,0.24632656574249268,-0.35671424865722656,0.3638174533843994
1699090664095455200,7.591455322265625,-0.10493016242980957,-0.3785667419433594,0.24125981330871582
1699090664105478700,7.601478759765625,-0.5099625587463379,-0.41762542724609375,0.11779427528381348
1699090664115490800,7.61149072265625,-0.5396587252616882,-0.5262212753295898,0.1111152172088623
1699090664125416400,7.62141650390625,-0.29509997367858887,-0.6038312911987305,0.17935419082641602
1699090664135379700,7.631379638671875,-0.3572589159011841,-0.64208984375,0.424069881439209
1699090664145365200,7.641365234375,-0.7825307846069336,-0.5303754806518555,0.6790304183959961
1699090664155508700,7.6515087890625,-0.9856562614440918,-0.2989063262939453,0.9385855197906494
1699090664165382000,7.6613818359375,-1.0185606479644775,0.13631820678710938,1.1634953022003174
1699090664176896500,7.672896484375,-1.1940224170684814,0.792506217956543,1.4552369117736816
1699090664186107600,7.682107666015625,-1.5012916326522827,1.4058809280395508,1.681185245513916
1699090664195867000,7.691866943359375,-1.4821327924728394,1.6043672561645508,1.470137119293213
1699090664205634000,7.701634033203125,-1.338719367980957,1.5036659240722656,0.8378020524978638
1699090664215443000,7.71144287109375,-1.5507731437683105,1.4468927383422852,0.5522729158401489
1699090664225289000,7.7212890625,-2.45198917388916,1.3585824966430664,0.1269240379333496
1699090664235238000,7.73123779296875,-2.176450729370117,1.3204593658447266,-0.3122131824493408
1699090664245220600,7.741220703125,-1.9199823141098022,1.2247552871704102,-0.8009779453277588
1699090664255532800,7.75153271484375,-1.5631141662597656,1.0025997161865234,-1.0609893798828125
1699090664265506800,7.7615068359375,-1.1579169034957886,0.6728639602661133,-0.9816279411315918
1699090664275489500,7.771489501953125,-1.1417591571807861,0.3489646911621094,-0.5825085639953613
1699090664285325800,7.781325927734375,-1.0963813066482544,0.09726142883300781,-0.24277710914611816
1699090664295247400,7.791247314453125,-0.5839008092880249,0.02224254608154297,0.032991886138916016
1699090664305212700,7.801212646484375,0.011041045188903809,0.042061805725097656,0.3013324737548828
1699090664315357000,7.81135693359375,0.24999243021011353,-0.061972618103027344,0.4445219039916992
1699090664325327400,7.821327392578125,0.3132435083389282,-0.34418201446533203,0.4143197536468506
1699090664335295700,7.831295654296875,0.4650175869464874,-0.7179145812988281,0.28855061531066895
1699090664345300500,7.841300537109375,0.5715709924697876,-0.9899749755859375,0.11554265022277832
1699090664355271200,7.851271240234375,0.24366790056228638,-1.085270881652832,0.0795896053314209
1699090664365283000,7.861282958984375,-0.13004648685455322,-0.9849166870117188,0.11330389976501465
1699090664375336400,7.87133642578125,0.21893355250358582,-0.8036308288574219,-0.04749107360839844
1699090664385308700,7.88130859375,1.003255844116211,-0.6457185745239258,-0.3647148609161377
1699090664395317800,7.89131787109375,1.4516793489456177,-0.5547904968261719,-0.718576192855835
1699090664405254400,7.90125439453125,1.8084428310394287,-0.47619056701660156,-0.8953194618225098
1699090664415304200,7.91130419921875,2.0301461219787598,-0.4753122329711914,-0.7704348564147949
1699090664425327000,7.9213271484375,1.885188102722168,-0.5739364624023438,-0.5294013023376465
1699090664435380000,7.9313798828125,1.6775485277175903,-0.7455234527587891,-0.4805786609649658
1699090664445423000,7.941423095703125,1.206183671951294,-0.5515308380126953,-1.2581737041473389
1699090664455332600,7.95133251953125,1.1003142595291138,-0.11874771118164062,-1.7811930179595947
1699090664465235700,7.961235595703125,1.2303194999694824,0.30840110778808594,-1.9662349224090576
1699090664475242000,7.971241943359375,1.207855463027954,0.5851602554321289,-1.836432695388794
1699090664485250000,7.98125,1.2305489778518677,0.5909366607666016,-1.6281321048736572
1699090664495321000,7.991321044921875,1.476790189743042,0.496002197265625,-1.2328238487243652
1699090664505355000,8.00135498046875,1.8530540466308594,0.2561521530151367,-0.6900615692138672
1699090664515428600,8.0114287109375,1.9668526649475098,-0.06907272338867188,-0.14856386184692383
1699090664525408300,8.021408203125,1.552236557006836,-0.4487628936767578,0.22922444343566895
1699090664535375600,8.031375732421875,1.202742099761963,-0.7217226028442383,0.5328230857849121
1699090664545397800,8.041397705078126,0.8337216377258301,-0.916142463684082,0.5906670093536377
1699090664555492400,8.051492431640625,0.56486976146698,-1.0808887481689453,0.14366888999938965
1699090664565456100,8.0614560546875,0.36687421798706055,-1.0257701873779297,-0.5231380462646484
1699090664575495200,8.0714951171875,0.285123348236084,-0.88323974609375,-1.166783094406128
1699090664585445000,8.081445068359375,0.6546303033828735,-0.9374837875366211,-1.5679254531860352
1699090664595439000,8.091439208984376,1.1739366054534912,-1.167008399963379,-1.5717616081237793
1699090664605530600,8.101530517578125,1.4845860004425049,-1.5218696594238281,-1.1757373809814453
1699090664615487700,8.11148779296875,1.2702151536941528,-1.689659595489502,-0.6765525341033936
1699090664625456400,8.121456298828125,0.9783285856246948,-1.729358196258545,-0.3869895935058594
1699090664635407600,8.13140771484375,0.29116201400756836,-1.6779489517211914,-0.2532670497894287
1699090664645421300,8.14142138671875,-0.28647422790527344,-1.4862723350524902,-0.35398268699645996
1699090664655439600,8.151439697265625,-0.3695753812789917,-1.197545051574707,-0.569739818572998
1699090664665534700,8.16153466796875,-0.15134525299072266,-1.1123838424682617,-1.0474159717559814
1699090664675579400,8.171579345703124,0.1692790985107422,-1.1345129013061523,-1.5777075290679932
1699090664685541600,8.181541748046875,0.10963141918182373,-1.1364927291870117,-1.8376774787902832
1699090664695502300,8.19150244140625,-0.2061629295349121,-1.048675537109375,-1.8817119598388672
1699090664705725200,8.20172509765625,-0.6162158250808716,-0.795313835144043,-1.6233339309692383
1699090664715477500,8.2114775390625,-0.6513791680335999,-0.5825815200805664,-1.3761403560638428
1699090664725361000,8.22136083984375,-0.6329424977302551,-0.3965120315551758,-1.1115787029266357
1699090664735219000,8.231218994140624,-0.8525168895721436,-0.29645252227783203,-0.7576169967651367
1699090664745151500,8.2411513671875,-1.0078625679016113,-0.40040016174316406,-0.6617937088012695
1699090664755185200,8.25118505859375,-0.7653244137763977,-0.46393775939941406,-0.6637358665466309
1699090664765214700,8.261214599609374,-0.2468574047088623,-0.4212331771850586,-0.1578826904296875
1699090664775230700,8.271230712890626,-0.18425655364990234,-0.08874225616455078,0.31990575790405273
1699090664785203500,8.281203369140625,-0.20642149448394775,0.10781383514404297,0.6487548351287842
1699090664795303700,8.2913037109375,-0.2825821042060852,0.23777294158935547,0.8943154811859131
1699090664805350000,8.301349853515624,-0.3077871799468994,0.27233028411865234,0.9642817974090576
1699090664815415000,8.3114150390625,-0.1844385266304016,0.15075969696044922,0.8395254611968994
1699090664825398000,8.32139794921875,0.11172938346862793,-0.0979928970336914,0.4639596939086914
1699090664835387000,8.331386962890624,0.23609983921051025,-0.39976024627685547,0.06722879409790039
1699090664845363000,8.341363037109375,0.0017964839935302734,-0.5701045989990234,-0.1557903289794922
1699090664855396000,8.35139599609375,-0.05155801773071289,-0.6072912216186523,-0.11378240585327148
1699090664865285000,8.36128515625,0.24139404296875,-0.6034469604492188,0.085174560546875
1699090664875233500,8.371233642578124,0.5326082706451416,-0.6162471771240234,0.3339722156524658
1699090664885272300,8.381272216796875,0.7256962060928345,-0.6636514663696289,0.47077035903930664
1699090664895277600,8.391277587890626,0.6521230936050415,-0.7384243011474609,0.4396803379058838
1699090664905281300,8.40128125,0.4083806276321411,-0.6391086578369141,0.38996005058288574
1699090664915290000,8.4112900390625,0.4424166679382324,-0.3948383331298828,0.4554283618927002
1699090664925295600,8.421295654296875,0.3986915349960327,-0.1054239273071289,0.5848336219787598
1699090664935270000,8.431269775390625,0.02672290802001953,0.26057910919189453,0.7065677642822266
1699090664945288400,8.441288330078125,0.05832326412200928,0.6035737991333008,0.7301864624023438
1699090664955290000,8.4512900390625,0.4123615026473999,0.7888498306274414,0.6644895076751709
1699090664965337600,8.461337646484376,0.8585662841796875,0.7433576583862305,0.5392069816589355
1699090664975409000,8.471408935546876,1.3011950254440308,0.4550485610961914,0.38797569274902344
1699090664985550800,8.48155078125,1.7262438535690308,0.04917621612548828,0.2969181537628174
1699090664995452400,8.491452392578125,1.9852255582809448,-0.38020992279052734,0.2588319778442383
1699090665005430800,8.5014306640625,1.5312082767486572,-0.7194900512695312,0.07282495498657227
1699090665015372800,8.511372802734375,0.4090738296508789,-0.6979074478149414,0.03346657752990723
1699090665025346000,8.521345947265624,-0.32778382301330566,-0.24405193328857422,0.2576420307159424
1699090665035322400,8.531322265625,-0.41349196434020996,0.40723609924316406,0.6459808349609375
1699090665045329700,8.54132958984375,-0.046066999435424805,0.8486042022705078,0.902951717376709
1699090665055344400,8.551344482421875,0.2965402603149414,0.9912233352661133,0.9375061988830566
1699090665065426700,8.5614267578125,0.5179811716079712,0.7628421783447266,0.4137532711029053
1699090665075403300,8.5714033203125,1.166022539138794,0.3895111083984375,-0.03306746482849121
1699090665085363700,8.58136376953125,1.5660171508789062,-0.0718984603881836,-0.3280618190765381
1699090665095374800,8.591374755859375,1.255234718322754,-0.43353271484375,-0.30275559425354004
1699090665105427500,8.601427490234375,0.35236406326293945,-0.5069494247436523,0.018450021743774414
1699090665115370800,8.611370849609376,-0.2083454132080078,-0.2979879379272461,0.5217664241790771
1699090665125362000,8.62136181640625,0.03911948204040527,0.05840778350830078,1.043459177017212
1699090665135263500,8.631263427734375,0.5317658185958862,0.2195138931274414,1.2280704975128174
1699090665145275600,8.641275634765625,0.5165094137191772,0.21320438385009766,1.1519415378570557
1699090665155240400,8.651240478515625,0.16780304908752441,0.12944698333740234,0.9678592681884766
1699090665165216300,8.66121630859375,0.18133032321929932,0.04541778564453125,0.7008016109466553
1699090665175224600,8.671224609375,0.5166423320770264,-0.09510231018066406,0.4726102352142334
1699090665185273900,8.68127392578125,0.8263660669326782,-0.26837921142578125,0.3018524646759033
1699090665195338500,8.69133837890625,0.7835416793823242,-0.3809356689453125,0.2262248992919922
1699090665205287700,8.70128759765625,0.44866740703582764,-0.34354686737060547,0.24457573890686035
1699090665215433500,8.71143359375,0.252139687538147,-0.1511707305908203,0.3250272274017334
1699090665225389000,8.72138916015625,0.4214862585067749,0.09159564971923828,0.37317943572998047
1699090665235447000,8.731447021484374,0.7792798280715942,0.14664936065673828,0.32871341705322266
1699090665245459000,8.741458984375,1.0097994804382324,0.0767526626586914,0.25940823554992676
1699090665255479000,8.75147900390625,1.0254497528076172,-0.039772987365722656,0.16101360321044922
1699090665265362000,8.76136181640625,1.035571813583374,-0.10221481323242188,0.09846329689025879
1699090665275408100,8.771408203125,1.1796343326568604,-0.11727714538574219,0.1754910945892334
1699090665285306600,8.781306640625,1.2677371501922607,-0.13916301727294922,0.3398745059967041
1699090665295301600,8.791301513671876,1.2097090482711792,-0.22893524169921875,0.4811239242553711
1699090665305330000,8.801329833984376,1.0488303899765015,-0.2960052490234375,0.5726773738861084
1699090665315234800,8.81123486328125,0.7507877349853516,-0.22691917419433594,0.6269221305847168
1699090665325196000,8.821196044921875,0.45661354064941406,-0.08134269714355469,0.6599156856536865
1699090665335239400,8.831239501953124,0.37100887298583984,0.07453632354736328,0.6845595836639404
1699090665345195800,8.84119580078125,0.44635987281799316,0.07378673553466797,0.6362347602844238
1699090665355257900,8.8512578125,0.42763710021972656,-0.0268096923828125,0.5733416080474854
1699090665365309400,8.861309326171876,0.2096555233001709,-0.13509845733642578,0.5094771385192871
1699090665375305700,8.8713056640625,0.04011273384094238,-0.23045063018798828,0.35489320755004883
1699090665385406000,8.881406005859375,0.08637261390686035,-0.06725215911865234,0.07904863357543945
1699090665395355400,8.89135546875,0.13557767868041992,0.09579944610595703,0.03819441795349121
1699090665405559300,8.901559326171874,-0.1384565830230713,0.22858524322509766,0.0007419586181640625
1699090665415462700,8.911462646484376,-0.3325573205947876,0.3939046859741211,-0.05405402183532715
1699090665425488000,8.92148779296875,0.0689706802368164,0.5105600357055664,-0.0051310062408447266
1699090665435403800,8.93140380859375,0.6365659236907959,0.5425987243652344,0.08217096328735352
1699090665445369300,8.941369384765625,0.7262516021728516,0.4644756317138672,0.11813068389892578
1699090665455631600,8.951631591796875,0.6939940452575684,0.3210468292236328,0.15514850616455078
1699090665465389300,8.961389404296876,0.6085588932037354,0.1212472915649414,0.07376933097839355
1699090665475289000,8.9712890625,0.49990272521972656,-0.007670402526855469,-0.00926661491394043
1699090665485244700,8.98124462890625,0.3720085620880127,-0.031661033630371094,-0.12737488746643066
1699090665495329800,8.991329833984375,0.19140911102294922,0.11573219299316406,-0.13677453994750977
1699090665505304800,9.001304931640625,0.031824350357055664,0.4289360046386719,-0.11737823486328125
1699090665515285500,9.011285400390625,-0.19303345680236816,0.8555049896240234,-0.04589200019836426
1699090665525286100,9.0212861328125,-0.6171115636825562,1.2219257354736328,0.07672643661499023
1699090665535306200,9.03130615234375,-0.4712454080581665,1.3864402770996094,0.023239612579345703
1699090665545405000,9.041405029296875,-0.07712244987487793,1.3438806533813477,0.06329035758972168
1699090665555384600,9.051384521484374,-0.03691554069519043,1.0923585891723633,-0.012487173080444336
1699090665565449200,9.06144921875,-0.1337442398071289,0.7946414947509766,-0.05358552932739258
1699090665575419600,9.071419677734376,-0.22121715545654297,0.5807304382324219,-0.03743338584899902
1699090665585610800,9.08161083984375,-0.4406386613845825,0.4839143753051758,0.049443721771240234
1699090665595559000,9.091558837890625,-0.42654550075531006,0.3728790283203125,0.08028054237365723
1699090665605470500,9.101470458984375,-0.0040166378021240234,0.1874675750732422,-0.14095473289489746
1699090665615447300,9.111447265625,0.5527117252349854,-0.02626323699951172,-0.4913046360015869
1699090665625393200,9.12139306640625,0.5626671314239502,-0.21993255615234375,-0.9142351150512695
1699090665635322000,9.131322021484374,0.20389533042907715,-0.1938486099243164,-0.932502031326294
1699090665645333000,9.1413330078125,0.1780838966369629,-0.026231765747070312,-0.6807374954223633
1699090665655785000,9.151784912109376,0.2865450382232666,0.07746410369873047,-0.356769323348999
1699090665665570000,9.161570068359374,0.5799975395202637,0.09896373748779297,-0.12562203407287598
1699090665675467000,9.171467041015624,1.0996174812316895,0.03472423553466797,-0.08463072776794434
1699090665685341400,9.181341552734375,1.5187103748321533,-0.08081245422363281,-0.12073254585266113
1699090665695364400,9.1913642578125,0.16334748268127441,-0.0025434494018554688,-0.05236101150512695
1699090665705270000,9.20127001953125,-1.4362215995788574,0.21522140502929688,0.17911314964294434
1699090665715282700,9.21128271484375,-1.4363963603973389,0.33149051666259766,0.06810212135314941
1699090665725329400,9.221329345703126,-0.30000412464141846,0.47040462493896484,0.02813124656677246
1699090665735411700,9.23141162109375,0.4980781078338623,0.49093151092529297,0.05608844757080078
1699090665745279200,9.241279296875,0.5173008441925049,0.33755016326904297,0.0041544437408447266
1699090665755596300,9.25159619140625,-0.18889260292053223,0.06893444061279297,-0.0487370491027832
1699090665765544200,9.261544189453126,-0.13156867027282715,-0.24055099487304688,-0.1402721405029297
1699090665775483100,9.271483154296876,0.13448405265808105,-0.47762012481689453,-0.28309059143066406
1699090665785506000,9.281506103515625,-0.302646279335022,-0.51617431640625,-0.1177668571472168
1699090665795475500,9.291475341796875,-0.5092579126358032,-0.4662160873413086,0.014010190963745117
1699090665805436700,9.301436767578124,-0.23857462406158447,-0.41292858123779297,-0.05340266227722168
1699090665815378400,9.31137841796875,-0.5260004997253418,-0.31655120849609375,-0.11220479011535645
1699090665825446700,9.32144677734375,-0.41055095195770264,-0.2259359359741211,-0.1224210262298584
1699090665835661300,9.331661376953125,-0.27385497093200684,-0.123504638671875,-0.1447126865386963
1699090665845539000,9.3415390625,-0.3469020128250122,0.014682769775390625,-0.08709311485290527
1699090665855505200,9.351505126953125,-0.3846297264099121,0.118499755859375,-0.047478437423706055
1699090665865342000,9.361342041015625,-0.2629663944244385,0.19847774505615234,-0.005331754684448242
1699090665875418000,9.371418212890624,-0.12095892429351807,0.1675710678100586,0.0688331127166748
1699090665885473000,9.38147314453125,0.06235241889953613,0.03911113739013672,0.17031431198120117
1699090665895472400,9.391472412109374,0.19147181510925293,-0.05652332305908203,0.25282907485961914
1699090665905314800,9.401314697265626,-0.4857596158981323,-0.054309844970703125,0.4206204414367676
1699090665915181800,9.411181884765625,-0.48840248584747314,-0.06505966186523438,0.47272777557373047
1699090665925170000,9.421169921875,-0.47436296939849854,-0.05338478088378906,0.4758446216583252
1699090665935222000,9.431221923828126,-0.4696347713470459,0.04452037811279297,0.5404682159423828
1699090665945259000,9.441259033203124,-0.3002742528915405,0.13979721069335938,0.6630821228027344
1699090665955275000,9.45127490234375,-0.424676775932312,0.2250986099243164,0.8202824592590332
1699090665965279000,9.461279052734374,-0.5433678030967712,0.23861122131347656,0.8316025733947754
1699090665975324000,9.471323974609374,-0.05151951313018799,0.17836856842041016,0.6479458808898926
1699090665985418000,9.48141796875,0.11059701442718506,0.10385990142822266,0.42540502548217773
1699090665995456000,9.4914560546875,0.4079890251159668,0.03143119812011719,0.3524916172027588
1699090666005421000,9.501421142578126,-0.16076159477233887,-0.13494014739990234,0.15881752967834473
1699090666015311600,9.5113115234375,-0.6142322421073914,-0.04500102996826172,-0.05991697311401367
1699090666025349600,9.521349609375,-0.5930725932121277,0.17105579376220703,-0.2560608386993408
1699090666035392300,9.531392333984375,-0.33835315704345703,0.35391807556152344,-0.309459924697876
1699090666045487600,9.541487548828124,-0.3840840458869934,0.4253358840942383,-0.2667074203491211
1699090666055494400,9.551494384765626,-0.5040577054023743,0.4900045394897461,-0.16416358947753906
1699090666065290200,9.561290283203125,-0.25361359119415283,0.5315074920654297,-0.01623821258544922
1699090666075206100,9.5712060546875,-0.0026814937591552734,0.5187463760375977,0.11939096450805664
1699090666085179600,9.5811796875,-0.10627985000610352,0.41664886474609375,0.11752057075500488
1699090666095241700,9.59124169921875,0.12348151206970215,0.20876598358154297,0.05467557907104492
1699090666105221400,9.601221435546876,0.4663757085800171,0.020544052124023438,-0.03337550163269043
1699090666115232300,9.611232177734376,-0.08099430799484253,-0.02524089813232422,-0.10372710227966309
1699090666125171200,9.621171142578126,-0.32294338941574097,-0.040287017822265625,-0.2581915855407715
1699090666135295000,9.631294921875,-0.3592284321784973,0.071075439453125,-0.1703193187713623
1699090666145289500,9.64128955078125,-0.18307286500930786,0.23653888702392578,0.021650314331054688
1699090666155635200,9.65163525390625,-0.18871843814849854,0.35239410400390625,0.1910719871520996
1699090666165369000,9.661369140625,-0.08180880546569824,0.3411064147949219,0.2793617248535156
1699090666175339500,9.671339599609375,0.14689159393310547,0.1984100341796875,0.27486133575439453
1699090666185347800,9.681347900390625,0.06311750411987305,0.03548145294189453,0.19876337051391602
1699090666195415300,9.691415283203124,0.028504252433776855,-0.09607696533203125,0.1134026050567627
1699090666205376300,9.701376220703125,0.1742374300956726,-0.15676593780517578,0.07011270523071289
1699090666215280600,9.71128076171875,-0.18346357345581055,-0.11670780181884766,0.14683842658996582
1699090666225227300,9.721227294921874,0.11020016670227051,-0.16932106018066406,0.06266188621520996
1699090666235192600,9.731192626953124,0.6544312834739685,-0.21567630767822266,-0.0742495059967041
1699090666245172700,9.7411728515625,-0.3054685592651367,-0.05866718292236328,-0.06780266761779785
1699090666255233500,9.751233642578125,-0.34342822432518005,0.020967483520507812,0.027849912643432617
1699090666265266700,9.7612666015625,0.14327102899551392,-0.03564167022705078,0.1152184009552002
1699090666275286300,9.771286376953125,-0.2494187355041504,-0.06960391998291016,0.3032660484313965
1699090666285278700,9.78127880859375,-0.45621612668037415,-0.14313125610351562,0.39874958992004395
1699090666295295700,9.791295654296874,-0.1107444167137146,-0.2967681884765625,0.3477001190185547
1699090666305294800,9.801294921875,0.27289867401123047,-0.4490079879760742,0.2283642292022705
1699090666315311400,9.811311279296875,-0.0610164999961853,-0.7014398574829102,-0.005319118499755859
1699090666325326800,9.821326904296875,0.18171614408493042,-0.8505477905273438,-0.16286706924438477
1699090666335338800,9.8313388671875,0.07511252164840698,-0.823359489440918,-0.1889631748199463
1699090666345343500,9.841343505859374,0.3761085867881775,-0.7354326248168945,-0.09167027473449707
1699090666355369700,9.85136962890625,0.2699710726737976,-0.5686864852905273,-0.001978635787963867
1699090666365379800,9.8613798828125,-0.10531681776046753,-0.37717342376708984,0.04821634292602539
1699090666375396400,9.871396240234375,0.36945289373397827,-0.30891895294189453,0.06387162208557129
1699090666385414100,9.8814140625,0.4747685194015503,-0.31265735626220703,0.12523341178894043
1699090666396208600,9.892208740234375,-0.031033694744110107,-0.3165092468261719,0.21528983116149902
1699090666405654800,9.90165478515625,0.32980501651763916,-0.38768768310546875,0.23015785217285156
1699090666415389400,9.911389404296875,0.9790475964546204,-0.4605855941772461,0.07151651382446289
1699090666425292800,9.921292724609375,0.3336547613143921,-0.32747554779052734,-0.01621246337890625
1699090666435237400,9.9312373046875,0.4545168876647949,-0.2078723907470703,-0.174790620803833
1699090666445210000,9.941210205078125,0.48471593856811523,-0.11585426330566406,-0.44518208503723145
1699090666455311600,9.9513115234375,0.06675100326538086,-0.004572868347167969,-0.7221481800079346
1699090666465229800,9.961229736328125,-3.7031641006469727,-2.880399703979492,-2.5042054653167725
1699090666475327500,9.971327392578125,7.287230968475342,-1.6629447937011719,-0.09899735450744629
1699090666485403100,9.981403076171874,-1.8304136991500854,1.2590932846069336,0.6199455261230469
1699090666495430100,9.99143017578125,1.020366907119751,2.497354507446289,0.3708977699279785
1699090666505388500,10.001388427734375,1.149785041809082,3.032878875732422,-0.3593173027038574
1699090666515273700,10.011273681640626,0.2166193723678589,2.861788749694824,-0.8881876468658447
1699090666525297000,10.021296875,-0.2752866744995117,2.3901662826538086,-1.3308234214782715
1699090666535319600,10.031319580078126,-0.36334049701690674,1.9510183334350586,-1.6255028247833252
1699090666545336800,10.0413369140625,-0.13939499855041504,1.7617177963256836,-1.5467798709869385
1699090666555349200,10.051349365234374,-0.4404740333557129,1.7751083374023438,-1.2354795932769775
1699090666565345800,10.061345703125,-0.6841745376586914,1.8912591934204102,-0.9099280834197998
1699090666575347500,10.071347412109375,-0.36786341667175293,1.9718503952026367,-0.6622061729431152
1699090666585436700,10.081436767578126,-0.003692626953125,1.9959821701049805,-0.4754037857055664
1699090666595413800,10.091413818359374,0.5605132579803467,1.9980297088623047,-0.3324148654937744
1699090666605417000,10.1014169921875,0.5226969718933105,1.9589500427246094,-0.18438124656677246
1699090666615486500,10.111486572265624,0.5234041213989258,1.8561210632324219,-0.10690617561340332
1699090666625510100,10.12151025390625,1.1255450248718262,1.5015716552734375,-0.6048619747161865
1699090666635466200,10.13146630859375,1.8348643779754639,1.249272346496582,-0.9828817844390869
1699090666645504500,10.14150439453125,2.1084954738616943,1.0727729797363281,-1.1542327404022217
1699090666655471400,10.151471435546876,2.5785791873931885,1.4259843826293945,-0.7830467224121094
1699090666665641200,10.16164111328125,2.1034061908721924,1.4438409805297852,-0.5085303783416748
1699090666675531000,10.171531005859375,2.4104838371276855,1.4605779647827148,-0.5318498611450195
1699090666685403600,10.181403564453126,2.6937711238861084,1.6729888916015625,-0.6605803966522217
1699090666695465200,10.19146533203125,2.6888365745544434,1.8211946487426758,-0.9140112400054932
1699090666705470700,10.201470703125,2.2686634063720703,2.1329097747802734,-1.2659549713134766
1699090666715612400,10.2116123046875,4.304465293884277,2.5514144897460938,-1.4763996601104736
1699090666725530000,10.221530029296876,5.133382797241211,3.0413389205932617,-1.6338167190551758
1699090666735380000,10.2313798828125,3.782697916030884,3.3603105545043945,-1.3330416679382324
1699090666745310000,10.24131005859375,4.702841758728027,3.014759063720703,-1.3888988494873047
1699090666755404500,10.251404541015624,4.685589790344238,2.76700496673584,-1.3309049606323242
1699090666765595600,10.261595703125,2.8605141639709473,3.1181983947753906,-0.8832263946533203
1699090666775502300,10.27150244140625,2.6877870559692383,3.452465057373047,-0.9004333019256592
1699090666785444000,10.281444091796875,2.5613927841186523,3.6232290267944336,-1.5304229259490967
1699090666795427600,10.291427490234375,2.2993173599243164,3.3896875381469727,-1.8033840656280518
1699090666805426700,10.3014267578125,2.0006766319274902,3.0096168518066406,-1.8625192642211914
1699090666815402000,10.311402099609374,1.5074028968811035,2.7796220779418945,-1.5131168365478516
1699090666825442600,10.321442626953125,1.7443058490753174,2.669393539428711,-1.1744835376739502
1699090666835394300,10.331394287109376,1.5308961868286133,2.5937509536743164,-1.133105754852295
1699090666845396200,10.341396240234374,1.0498147010803223,2.7091007232666016,-1.382002353668213
1699090666855390500,10.351390380859375,0.5438149571418762,3.0507946014404297,-1.6539599895477295
1699090666865474300,10.361474365234375,-0.06465572118759155,3.248720169067383,-1.7690026760101318
1699090666875431700,10.371431640625,0.6381500363349915,3.344432830810547,-1.871048927307129
1699090666885452300,10.381452392578124,-0.1182645857334137,3.4525461196899414,-1.436828374862671
1699090666895303200,10.39130322265625,-0.7431479692459106,3.2684755325317383,-1.2943696975708008
1699090666905230600,10.401230712890625,-0.2884176969528198,3.036196708679199,-1.4127476215362549
1699090666915191800,10.41119189453125,-0.9978604316711426,3.1186513900756836,-1.1584622859954834
1699090666925332500,10.42133251953125,-0.4847203493118286,2.901656150817871,-0.9521055221557617
1699090666935312600,10.431312744140625,-1.0082178115844727,2.5651941299438477,-0.849675178527832
1699090666945308400,10.441308349609375,0.26421940326690674,2.11322021484375,-0.9439892768859863
1699090666955305200,10.45130517578125,-1.5185513496398926,2.14035701751709,-0.620732307434082
1699090666965352200,10.461352294921875,-1.2670739889144897,1.9656982421875,-0.883948802947998
1699090666975341600,10.471341552734375,-1.427060842514038,1.9183931350708008,-0.7434704303741455
1699090666985336300,10.48133642578125,-1.1792128086090088,1.9305152893066406,-0.18162202835083008
1699090666995404000,10.491404052734374,-1.0670870542526245,1.8425264358520508,0.4832742214202881
1699090667005369600,10.50136962890625,-1.2769320011138916,1.591780662536621,0.873185396194458
1699090667015611000,10.51161083984375,-1.1088953018188477,1.1967144012451172,0.9467942714691162
1699090667025440000,10.52143994140625,-1.0205044746398926,0.8032293319702148,0.7713983058929443
1699090667035332900,10.531332763671875,-1.2504372596740723,0.4941082000732422,0.1372218132019043
1699090667045311000,10.54131103515625,-0.9186732172966003,0.19281387329101562,-0.0784752368927002
1699090667055332600,10.55133251953125,-0.8356020450592041,-0.09729766845703125,0.17395496368408203
1699090667065230300,10.561230224609375,-0.27616262435913086,-0.5052852630615234,0.35660290718078613
1699090667075227100,10.57122705078125,0.2635346055030823,-0.8503437042236328,0.8499934673309326
1699090667085183000,10.581182861328125,0.08815622329711914,-1.1729803085327148,1.2785917520523071
1699090667095256600,10.591256591796874,0.3200538158416748,-1.3568143844604492,1.3873679637908936
1699090667105271300,10.601271240234375,0.2633446455001831,-1.2606544494628906,0.7799121141433716
1699090667115366100,10.6113662109375,-0.7023496627807617,-0.7394351959228516,0.11354851722717285
1699090667125329700,10.62132958984375,-1.7436741590499878,-0.23394203186035156,0.21112513542175293
1699090667135303700,10.6313037109375,-2.2956628799438477,0.05482196807861328,0.6298677921295166
1699090667145275400,10.641275390625,-2.8739895820617676,0.1020669937133789,0.7106332778930664
1699090667155288600,10.65128857421875,-2.6829581260681152,0.0017108917236328125,0.8917137384414673
1699090667165295900,10.6612958984375,-2.82132887840271,-0.3921241760253906,0.5969219207763672
1699090667175291000,10.671290771484376,-2.3710803985595703,-0.71502685546875,0.2534475326538086
1699090667185323500,10.681323486328125,-2.037724256515503,-0.6570348739624023,-0.3728034496307373
1699090667195427800,10.691427734375,-2.6846141815185547,-0.08279132843017578,-0.9416882991790771
1699090667205427000,10.701427001953125,-5.224630355834961,0.2853965759277344,-0.6149053573608398
1699090667215502800,10.7115029296875,-6.675483226776123,-0.4181098937988281,-0.5515165328979492
1699090667225424000,10.721423828125,-6.593294620513916,-1.4335665702819824,-0.36754465103149414
1699090667235438600,10.7314384765625,-7.088383197784424,-2.1324148178100586,1.1425338983535767
1699090667245389800,10.741389892578125,-3.4734110832214355,-2.781432628631592,3.1555016040802
1699090667255363800,10.75136376953125,-2.246314287185669,-5.356454849243164,5.5099358558654785
1699090667265524000,10.76152392578125,-1.0110232830047607,-7.391218185424805,5.814755916595459
1699090667275424500,10.771424560546874,2.384931802749634,-9.615274429321289,5.8496928215026855
1699090667285376800,10.781376708984375,5.249032974243164,-11.83128833770752,6.577273845672607
1699090667295327000,10.791326904296875,2.6234498023986816,-13.57766056060791,8.953373908996582
1699090667305347300,10.801347412109376,1.5154223442077637,-16.752286911010742,6.196698188781738
1699090667315469300,10.81146923828125,10.816798210144043,-18.33751678466797,1.7152544260025024
1699090667325381000,10.821381103515625,4.019320487976074,-18.48571014404297,2.550978660583496
1699090667335346400,10.831346435546875,4.885472774505615,-19.03928565979004,3.019861936569214
1699090667345308200,10.84130810546875,5.353996276855469,-16.823101043701172,3.1541130542755127
1699090667355326200,10.851326171875,8.696269989013672,-13.927989959716797,4.432488918304443
1699090667365451000,10.861450927734374,5.471019744873047,-12.383045196533203,3.2072415351867676
1699090667375423500,10.871423583984376,0.05058977007865906,-11.532649993896484,1.0104682445526123
1699090667385354800,10.881354736328126,-0.5878118872642517,-11.218989372253418,-1.6820976734161377
1699090667395299800,10.8912998046875,6.607640743255615,-9.412147521972656,1.045285940170288
1699090667405349400,10.901349365234376,-3.48935604095459,-7.087741374969482,4.609389781951904
1699090667415348700,10.9113486328125,-5.756481647491455,-5.480415344238281,4.934459686279297
1699090667425317400,10.9213173828125,-1.8333485126495361,-2.930474281311035,3.7773020267486572
1699090667435232300,10.931232177734374,-1.7778329849243164,-1.2306842803955078,2.7502100467681885
1699090667445249000,10.9412490234375,-2.479825019836426,-1.7504005432128906,1.999706745147705
1699090667455300000,10.951300048828125,-1.2565534114837646,-4.977742671966553,0.9635224342346191
1699090667465249000,10.9612490234375,-0.8438214063644409,-7.961609363555908,1.0414681434631348
1699090667475263000,10.971262939453124,0.3818511366844177,-10.373570442199707,0.38315629959106445
1699090667485284000,10.9812841796875,0.43823671340942383,-10.84024715423584,-0.5474348068237305
1699090667495216000,10.991216064453125,1.2618976831436157,-9.515987396240234,-0.7640900611877441
1699090667505370000,11.0013701171875,-0.3947784900665283,-6.54621696472168,0.0453341007232666
1699090667515379500,11.01137939453125,0.6543843746185303,-4.088810920715332,1.7988083362579346
1699090667525370400,11.021370361328126,3.049349784851074,-2.03202486038208,5.146636009216309
1699090667535379700,11.031379638671876,0.4847116470336914,-1.9422106742858887,7.523682117462158
1699090667545412900,11.041412841796875,-0.9937745332717896,-4.589839458465576,6.781432628631592
1699090667555396400,11.051396240234375,1.464277982711792,-8.650630950927734,3.239039897918701
1699090667566777600,11.062777587890626,2.738631248474121,-14.547589302062988,-0.4872879981994629
1699090667576148000,11.07214794921875,0.19328045845031738,-14.46522331237793,0.6610324382781982
1699090667585715000,11.08171484375,-0.6591463088989258,-12.466097831726074,3.6501152515411377
1699090667595550500,11.091550537109375,0.352688193321228,-11.136725425720215,4.012511253356934
1699090667605433300,11.101433349609374,0.0807877779006958,-10.810591697692871,2.9012227058410645
1699090667615385000,11.111385009765625,-1.0726243257522583,-10.5718994140625,3.1454315185546875
1699090667625356000,11.12135595703125,-2.856760263442993,-10.226308822631836,3.7755889892578125
1699090667635321600,11.131321533203124,-2.3294620513916016,-9.827668190002441,3.2956247329711914
1699090667645340700,11.141340576171874,0.40966105461120605,-9.422720909118652,2.5408363342285156
1699090667655333400,11.15133349609375,0.382121205329895,-9.0759916305542,2.6815273761749268
1699090667665382700,11.161382568359375,-0.11588728427886963,-8.891530990600586,2.889155387878418
1699090667675372300,11.171372314453125,1.2829957008361816,-9.004719734191895,2.085308790206909
1699090667685359000,11.181359130859375,3.6270525455474854,-8.65381145477295,1.7297422885894775
1699090667695239200,11.1912392578125,1.724810242652893,-7.447900772094727,2.0882999897003174
1699090667705274000,11.201274169921875,0.7926222085952759,-5.34368896484375,1.7872178554534912
1699090667715230500,11.21123046875,3.251903772354126,-0.8704719543457031,1.0244500637054443
1699090667725253600,11.221253662109374,10.664252281188965,9.957023620605469,-4.462582111358643
1699090667735272000,11.23127197265625,6.158191204071045,25.637229919433594,-8.867280006408691
1699090667745262800,11.241262939453126,0.7529677152633667,29.881433486938477,-7.198853492736816
1699090667755303400,11.251303466796875,7.230357646942139,29.850910186767578,-12.777647972106934
1699090667765350100,11.26135009765625,0.03341186046600342,29.477035522460938,-11.513764381408691
1699090667775321000,11.271321044921875,-3.8125476837158203,18.360023498535156,-7.46402645111084
1699090667785305000,11.28130517578125,-5.337601661682129,12.322340965270996,-4.27076530456543
1699090667795311600,11.2913115234375,-6.566595077514648,14.040770530700684,-2.217449188232422
1699090667805300200,11.30130029296875,-2.5521745681762695,14.604537963867188,-1.688218593597412
1699090667815340500,11.311340576171874,-6.885744094848633,13.642613410949707,-0.40135884284973145
1699090667825313300,11.321313232421875,-9.470627784729004,14.61213493347168,-1.8346970081329346
1699090667835326200,11.331326171875,-5.5435895919799805,14.368120193481445,-5.157971382141113
1699090667845318100,11.341318115234374,-3.634216547012329,11.828248977661133,-6.644529819488525
1699090667855491600,11.35149169921875,-3.3795089721679688,8.556397438049316,-5.851312637329102
1699090667865469700,11.3614697265625,1.6208477020263672,5.589159965515137,-5.0391035079956055
1699090667875366000,11.371365966796875,2.9020755290985107,0.5854663848876953,-2.8157691955566406
1699090667885269000,11.38126904296875,2.4158551692962646,0.5274219512939453,-0.7873973846435547
1699090667895310000,11.39131005859375,2.041497230529785,1.6690683364868164,0.5841708183288574
1699090667905233000,11.40123291015625,1.599960446357727,2.873006820678711,0.6489076614379883
1699090667915335400,11.41133544921875,0.7717896699905396,3.6938304901123047,-0.1432344913482666
1699090667925328000,11.421327880859375,0.7810388803482056,4.454995155334473,-1.7442190647125244
1699090667935332900,11.431332763671875,1.2996907234191895,5.127131462097168,-2.9814453125
1699090667945312500,11.4413125,0.5533825159072876,5.165468215942383,-3.8673365116119385
1699090667955298800,11.451298828125,-0.34530821442604065,4.506328582763672,-4.993427276611328
1699090667965308400,11.461308349609375,1.3194493055343628,3.241898536682129,-5.555278778076172
1699090667975274200,11.471274169921875,0.42288917303085327,2.0635480880737305,-4.8591766357421875
1699090667985222700,11.48122265625,-0.27803999185562134,1.8095169067382812,-3.8082122802734375
1699090667995158800,11.49115869140625,-0.07165463268756866,2.4119386672973633,-2.640303134918213
1699090668005116400,11.501116455078124,-1.1040886640548706,3.2418384552001953,-1.0814485549926758
1699090668015138300,11.51113818359375,-2.4218361377716064,4.022214889526367,0.22864294052124023
1699090668025172500,11.52117236328125,-1.9528322219848633,4.8902997970581055,0.6802232265472412
1699090668035168300,11.531168212890625,-1.1911691427230835,5.934392929077148,0.477344274520874
1699090668045151200,11.541151123046875,-1.7342509031295776,6.574666976928711,-0.2740297317504883
1699090668055239700,11.55123974609375,-1.5630853176116943,6.600655555725098,-0.9995472431182861
1699090668065188900,11.56118896484375,-1.0436618328094482,5.567628860473633,-1.0569932460784912
1699090668075200500,11.571200439453126,-0.6997768878936768,4.233633995056152,-0.42986440658569336
1699090668085273600,11.581273681640624,-0.460995614528656,3.139645576477051,0.20353055000305176
1699090668095334000,11.591333984375,-0.18727876245975494,2.363557815551758,0.6391465663909912
1699090668105410000,11.60141015625,-0.6482772827148438,2.0447235107421875,0.960938572883606
1699090668115349000,11.611348876953125,-0.8722609877586365,1.9592809677124023,0.9122030735015869
1699090668125250600,11.62125048828125,-0.6705365180969238,1.834136962890625,0.4744086265563965
1699090668135200300,11.6312001953125,-0.7416044473648071,1.4698810577392578,-0.23823165893554688
1699090668145169700,11.641169677734375,-1.3418806791305542,1.324204444885254,-0.8808088302612305
1699090668155225900,11.651225830078126,-1.5141029357910156,1.348130226135254,-1.7587025165557861
1699090668165231900,11.66123193359375,-0.8788479566574097,1.3704051971435547,-2.714512348175049
1699090668175265500,11.671265625,-0.5326492190361023,1.4119958877563477,-3.177229404449463
1699090668185276700,11.681276611328125,-0.6516308188438416,1.4367103576660156,-2.66074538230896
1699090668195282400,11.691282470703126,-0.8070629835128784,1.2901334762573242,-2.2735960483551025
1699090668205288700,11.701288818359375,-0.71184241771698,1.111922264099121,-1.900132656097412
1699090668215241200,11.7112412109375,-0.45109498500823975,1.0258769989013672,-1.478769302368164
1699090668225286700,11.72128662109375,-0.23273412883281708,0.9991941452026367,-1.0641124248504639
1699090668235379500,11.73137939453125,-0.13472236692905426,1.0510845184326172,-0.7662160396575928
1699090668245374200,11.741374267578125,-0.013061881065368652,1.0904083251953125,-0.6667749881744385
1699090668255434500,11.7514345703125,0.24061524868011475,1.1631755828857422,-0.6216616630554199
1699090668265415200,11.761415283203124,0.6725345849990845,1.0701179504394531,-0.7395250797271729
1699090668275366700,11.77136669921875,1.1204642057418823,0.926762580871582,-0.56709885597229
1699090668285367800,11.781367919921875,0.5312483906745911,0.8656482696533203,-0.07771468162536621
1699090668295389400,11.791389404296876,-0.8093376159667969,0.6747226715087891,-0.1266460418701172
1699090668305366800,11.80136669921875,-0.8515817523002625,0.6046838760375977,-0.5552961826324463
1699090668315298300,11.81129833984375,-0.286329060792923,0.6206960678100586,-0.6705079078674316
1699090668325321200,11.8213212890625,-0.6677283048629761,0.4808692932128906,-0.5705924034118652
1699090668335339000,11.831339111328125,-0.9235160946846008,0.2847776412963867,-0.28981995582580566
1699090668345346600,11.8413466796875,-0.7298057079315186,0.0026273727416992188,0.010806560516357422
1699090668355356200,11.851356201171875,0.0689736008644104,-0.40154361724853516,0.4168250560760498
1699090668365287700,11.86128759765625,0.6625691652297974,-0.9587278366088867,0.8239485025405884
1699090668375301400,11.87130126953125,0.5661135911941528,-1.6111431121826172,1.072729468345642
1699090668385305000,11.88130517578125,0.41447359323501587,-2.27756929397583,1.2809278964996338
1699090668395268000,11.89126806640625,0.35963451862335205,-2.8850483894348145,1.3453103303909302
1699090668405289000,11.9012890625,-0.19659268856048584,-3.2440781593322754,1.3900717496871948
1699090668415249400,11.91124951171875,-0.2973756790161133,-3.4145302772521973,1.3401942253112793
1699090668425276200,11.921276123046875,-0.26502835750579834,-3.569749355316162,1.152124285697937
1699090668435406600,11.931406494140624,-0.46384894847869873,-3.7785120010375977,1.0080634355545044
1699090668445459200,11.941459228515624,-0.15242314338684082,-3.958199977874756,0.9622186422348022
1699090668455444200,11.9514443359375,0.08862125873565674,-4.0599188804626465,0.9051835536956787
1699090668465356500,11.9613564453125,0.31895166635513306,-4.005641460418701,0.6977145671844482
1699090668475726800,11.971726806640625,0.7034318447113037,-3.7939276695251465,0.6942157745361328
1699090668485459000,11.981458984375,0.6629427671432495,-3.502108097076416,0.7032513618469238
1699090668495378400,11.99137841796875,0.46850717067718506,-3.2123608589172363,0.9251978397369385
1699090668505345300,12.00134521484375,0.5049409866333008,-3.5311789512634277,0.9548666477203369
1699090668515677700,12.011677734375,0.5244971513748169,-3.8622326850891113,1.149096965789795
1699090668525495800,12.021495849609375,0.6990004777908325,-3.9334187507629395,1.3559010028839111
1699090668535415300,12.031415283203126,1.4491113424301147,-3.7837748527526855,1.4029130935668945
1699090668545366800,12.04136669921875,0.7072612047195435,-3.4681553840637207,1.2621134519577026
1699090668555347000,12.051346923828126,-0.9074579477310181,-2.974421501159668,1.3083616495132446
1699090668565406000,12.061406005859375,-0.5677847862243652,-2.774294376373291,1.1707754135131836
1699090668575365400,12.071365478515625,-0.306282103061676,-2.625814914703369,1.0670884847640991
1699090668585342700,12.0813427734375,-0.49290740489959717,-2.382183074951172,1.2281816005706787
1699090668595306000,12.091305908203125,-0.4259794354438782,-2.1634092330932617,1.1553633213043213
1699090668605332500,12.10133251953125,-0.27837538719177246,-1.9201269149780273,0.9856758117675781
1699090668615344000,12.11134423828125,-0.8581331372261047,-1.6363701820373535,1.0002782344818115
1699090668625353200,12.121353271484375,-1.2513427734375,-1.490187168121338,0.8584656715393066
1699090668635364600,12.131364501953126,-1.255810022354126,-1.4543142318725586,0.5217576026916504
1699090668645418800,12.141418701171874,-1.2950024604797363,-1.2720732688903809,0.1828925609588623
1699090668655393300,12.151393310546876,-1.1338505744934082,-0.9211158752441406,-0.21640610694885254
1699090668665376800,12.161376708984376,-0.7225199341773987,-0.3887929916381836,-0.5809190273284912
1699090668675365400,12.171365478515625,-0.450697660446167,0.1721668243408203,-0.7096478939056396
1699090668685361200,12.181361083984376,-0.3758898973464966,0.6412496566772461,-0.6793251037597656
1699090668695362000,12.191362060546876,-0.5504735112190247,0.9887981414794922,-0.6578691005706787
1699090668705357000,12.201357177734375,-0.8347676992416382,1.251051902770996,-0.5907416343688965
1699090668715346400,12.211346435546876,-0.7171511650085449,1.3697023391723633,-0.580817461013794
1699090668725458700,12.221458740234375,-0.18066072463989258,1.3451290130615234,-0.5483779907226562
1699090668735343400,12.23134326171875,0.2767629623413086,1.2641525268554688,-0.7904267311096191
1699090668745274000,12.241274169921875,0.5836784839630127,1.346017837524414,-0.6894404888153076
1699090668755232500,12.251232421875,0.31401216983795166,1.4746265411376953,-0.4219985008239746
1699090668765155300,12.2611552734375,0.308984637260437,1.4189414978027344,-0.39705705642700195
1699090668775243300,12.2712431640625,0.26950371265411377,1.296065330505371,-0.40525364875793457
1699090668785261000,12.281260986328125,0.4100128412246704,1.1472396850585938,-0.32216644287109375
1699090668795241000,12.291240966796876,0.6335651874542236,0.7795839309692383,-0.4018990993499756
1699090668805257000,12.301257080078125,0.5708222389221191,0.2311267852783203,-0.37398409843444824
1699090668815259100,12.311259033203125,0.6914429664611816,-0.06208324432373047,-0.263408899307251
1699090668825281000,12.321281005859374,0.585241436958313,-0.33777523040771484,-0.22710204124450684
1699090668835276500,12.331276611328125,0.6223790645599365,-0.49271583557128906,-0.10796380043029785
1699090668845352700,12.341352783203124,0.7182139158248901,-0.42356300354003906,0.23247504234313965
1699090668855335400,12.35133544921875,0.8678408861160278,-0.3604602813720703,0.4807748794555664
1699090668865332700,12.361332763671875,0.6441367864608765,-0.37176513671875,0.6124486923217773
1699090668875324000,12.371323974609375,0.23150217533111572,-0.5017862319946289,0.6252565383911133
1699090668885307400,12.381307373046875,0.04577326774597168,-0.7378759384155273,0.46369075775146484
1699090668895249200,12.391249267578125,-0.21633684635162354,-0.9359598159790039,0.33785319328308105
1699090668905259500,12.401259521484375,-0.6291636228561401,-1.0876140594482422,0.30070066452026367
1699090668915257900,12.4112578125,-0.637075662612915,-1.2217459678649902,0.12543892860412598
1699090668925249800,12.421249755859375,-0.4497479200363159,-1.3095393180847168,-0.24773907661437988
1699090668935201500,12.431201416015625,-0.23254477977752686,-1.2930951118469238,-0.4788844585418701
1699090668945246700,12.441246826171875,-0.23952054977416992,-1.2447967529296875,-0.46286773681640625
1699090668955221200,12.45122119140625,-0.321010947227478,-1.1452550888061523,-0.29183244705200195
1699090668965205800,12.461205810546875,-0.40852344036102295,-1.0005121231079102,-0.18855905532836914
1699090668975241700,12.47124169921875,-0.39333975315093994,-0.7849245071411133,-0.10451078414916992
1699090668985237500,12.481237548828124,-0.32697224617004395,-0.4912567138671875,-0.06709647178649902
1699090668995241200,12.4912412109375,-0.09028089046478271,-0.2601747512817383,-0.11916422843933105
1699090669005258500,12.501258544921875,0.2315598726272583,-0.07798194885253906,0.06947517395019531
1699090669015283200,12.511283203125,0.11379039287567139,0.03492450714111328,0.36693477630615234
1699090669025387300,12.52138720703125,-0.18107497692108154,-0.15639019012451172,0.17052125930786133
1699090669035278000,12.531278076171875,-0.11824584007263184,-0.5090293884277344,-0.34780383110046387
1699090669045244400,12.541244384765625,0.0646817684173584,-0.5954122543334961,-0.5415425300598145
1699090669055174700,12.551174560546874,0.1370614767074585,-0.5315170288085938,-0.4023451805114746
1699090669065177300,12.56117724609375,0.19235730171203613,-0.4616575241088867,-0.14086031913757324
1699090669075157800,12.57115771484375,0.14969539642333984,-0.28527069091796875,0.3351900577545166
1699090669085159400,12.581159423828124,0.19403886795043945,-0.01967620849609375,0.730900764465332
1699090669095165700,12.591165771484375,-0.015361189842224121,0.23507118225097656,0.7060277462005615
1699090669105162800,12.601162841796874,-0.10009586811065674,0.45535945892333984,0.7099568843841553
1699090669115100000,12.611099853515626,-0.08058404922485352,0.5751352310180664,0.756906270980835
1699090669125081900,12.621081787109375,-0.14147508144378662,0.40842533111572266,0.6848890781402588
1699090669135122000,12.631121826171874,-0.262198805809021,0.27165794372558594,0.6619100570678711
1699090669145145600,12.6411455078125,-0.3650001287460327,0.1228036880493164,0.5733206272125244
1699090669155222300,12.65122216796875,-0.5380085706710815,-0.014056205749511719,0.3371899127960205
