time,seconds_elapsed,z,y,x
1699090656701994000,0.197993896484375,0.6772968173027039,-0.16378824412822723,-1.0250319242477417
1699090656711786000,0.207785888671875,0.6809620261192322,-0.040393464267253876,-1.0757336616516113
1699090656721767000,0.217766845703125,0.7041749358177185,0.010919216088950634,-1.0910053253173828
1699090656731782000,0.227781982421875,0.7451028823852539,0.0164170041680336,-1.0873401165008545
1699090656741857000,0.23785693359375,0.7872526049613953,-0.0996473953127861,-1.1044443845748901
1699090656752186000,0.24818603515625,0.8000807762145996,-0.24747678637504578,-1.1001683473587036
1699090656761977000,0.25797705078125,0.7958046793937683,-0.29329168796539307,-1.0067058801651
1699090656771865000,0.267864990234375,0.7988590002059937,-0.44112107157707214,-0.8991936445236206
1699090656781870000,0.2778701171875,0.8153523802757263,-0.6091089844703674,-0.6511823534965515
1699090656791860000,0.28785986328125,0.8471173644065857,-0.4649448096752167,-0.5009095072746277
1699090656801862000,0.29786181640625,0.8764389157295227,-0.2267073690891266,-0.36529740691185
1699090656811777000,0.307777099609375,0.8886561989784241,0.020082194358110428,-0.2785545587539673
1699090656821824000,0.317823974609375,0.9027060866355896,0.22655464708805084,-0.2638937830924988
1699090656832206000,0.3282060546875,0.9387471675872803,0.3456733822822571,-0.3194825351238251
1699090656842047000,0.338046875,0.9949467778205872,0.32184961438179016,-0.4190535545349121
1699090656851749000,0.3477490234375,1.0047205686569214,-0.010461067780852318,-0.4355469346046448
1699090656861766000,0.357765869140625,1.107956886291504,-0.023900102823972702,-0.47342056035995483
1699090656871615000,0.367614990234375,1.2454015016555786,0.0316886343061924,-0.5271766781806946
1699090656881901000,0.377901123046875,1.3119858503341675,-0.10636691004037857,-0.5589417219161987
1699090656891830000,0.387830078125,1.3351987600326538,-0.2517528533935547,-0.5619960427284241
1699090656901842000,0.397842041015625,1.3761266469955444,-0.2957351505756378,-0.5161811113357544
1699090656911656000,0.407656005859375,1.432326316833496,-0.4747186601161957,-0.3628539443016052
1699090656921858000,0.417858154296875,1.545336365699768,-0.4722751975059509,-0.1820378452539444
1699090656931717000,0.427717041015625,1.676672339439392,-0.37026068568229675,-0.033597588539123535
1699090656941859000,0.437859130859375,1.7737998962402344,-0.35987597703933716,0.036651913076639175
1699090656951896000,0.44789599609375,1.7933475971221924,-0.38980838656425476,-0.018936822190880775
1699090656961609000,0.45760888671875,1.733482837677002,-0.43073636293411255,-0.19975294172763824
1699090656971603000,0.46760302734375,1.6143641471862793,-0.871781051158905,-0.35246923565864563
1699090656981642000,0.47764208984375,1.5673274993896484,-1.3225996494293213,-0.4086688458919525
1699090656991709000,0.487708984375,1.6656768321990967,-1.2737303972244263,-0.4031710624694824
1699090657001867000,0.497866943359375,1.7884607315063477,-0.672028124332428,-0.24190263450145721
1699090657011710000,0.5077099609375,1.7029396295547485,0.6144540905952454,0.40072759985923767
1699090657021829000,0.5178291015625,1.6418530941009521,1.1831696033477783,0.9932668805122375
1699090657031726000,0.52772607421875,1.7102699279785156,0.8245916962623596,1.064738154411316
1699090657041835000,0.5378349609375,1.905135989189148,0.43791401386260986,1.0348057746887207
1699090657051776000,0.54777587890625,2.1678080558776855,0.3804926872253418,1.1233811378479004
1699090657061754000,0.557754150390625,2.4549148082733154,0.8105418086051941,1.2162326574325562
1699090657071610000,0.567610107421875,2.6791021823883057,1.0536662340164185,1.1246029138565063
1699090657081670000,0.577669921875,2.716365098953247,0.8533023595809937,0.9657779335975647
1699090657091687000,0.58768701171875,2.338850259780884,0.5637522339820862,0.8827002644538879
1699090657101926000,0.59792578125,2.032806873321533,-0.10758864134550095,0.7446447610855103
1699090657111631000,0.607631103515625,1.8086192607879639,-0.27374398708343506,0.7202101349830627
1699090657121841000,0.6178408203125,1.609477162361145,-0.28718301653862,0.607200026512146
1699090657131643000,0.627642822265625,1.5166256427764893,-0.1399645060300827,0.47769662737846375
1699090657141593000,0.637593017578125,1.506240963935852,0.15202908217906952,0.41661009192466736
1699090657151664000,0.6476640625,1.4915802478790283,0.32795828580856323,0.4642575979232788
1699090657161772000,0.65777197265625,1.5001323223114014,0.48250719904899597,0.5705481171607971
1699090657171623000,0.667622802734375,1.516014814376831,0.5832999348640442,0.7293730974197388
1699090657181680000,0.67768017578125,1.4738651514053345,0.5668066143989563,0.8949176073074341
1699090657191676000,0.687676025390625,1.3920091390609741,0.4409683346748352,1.017701506614685
1699090657201740000,0.697739990234375,1.2887729406356812,0.3358995318412781,1.0714576244354248
1699090657211628000,0.7076279296875,1.1714868545532227,0.2796999216079712,1.0519099235534668
1699090657221835000,0.7178349609375,1.069472312927246,0.25098925828933716,0.9804387092590332
1699090657231616000,0.727615966796875,0.993725061416626,0.2894737720489502,0.8301658630371094
1699090657241605000,0.737605224609375,0.963792622089386,0.41347941756248474,0.6346889734268188
1699090657251611000,0.74761083984375,0.95462965965271,0.5503132343292236,0.42149701714515686
1699090657261771000,0.75777099609375,0.9405797719955444,0.7042512893676758,0.24923302233219147
1699090657271611000,0.76761083984375,0.9014843702316284,0.8276460766792297,0.24678955972194672
1699090657281648000,0.777648193359375,0.8367326855659485,0.9369909167289734,0.4098905920982361
1699090657291616000,0.787615966796875,0.7744244337081909,1.029842495918274,0.6640105247497559
1699090657301626000,0.797626220703125,0.7225008606910706,1.1569024324417114,0.921795666217804
1699090657311695000,0.807695068359375,0.6858489513397217,1.293736219406128,1.0958921909332275
1699090657321943000,0.817943115234375,0.6913467645645142,1.3462706804275513,1.0543533563613892
1699090657331607000,0.82760693359375,0.7457137703895569,1.2595278024673462,0.8136724829673767
1699090657341702000,0.837701904296875,0.8550586104393005,1.017625093460083,0.5925393104553223
1699090657351715000,0.847715087890625,1.0053315162658691,0.7183011770248413,0.4141666293144226
1699090657361587000,0.8575869140625,1.1110111474990845,0.4250858426094055,0.2535090744495392
1699090657371782000,0.867781982421875,1.1647672653198242,0.20517437160015106,0.15454891324043274
1699090657381759000,0.877759033203125,1.1989758014678955,0.04879286140203476,0.16432274878025055
1699090657391808000,0.88780810546875,1.1928671598434448,-0.008017606101930141,0.2736676335334778
1699090657402197000,0.898197021484375,1.1659890413284302,0.30291280150413513,0.504574716091156
1699090657411750000,0.90775,1.1812607049942017,0.5503132343292236,0.5577199459075928
1699090657421845000,0.917844970703125,1.211803913116455,0.6969208717346191,0.5619960427284241
1699090657431906000,0.927906005859375,1.2307407855987549,0.6883687973022461,0.5852088928222656
1699090657441871000,0.93787109375,1.2209669351577759,0.5649740099906921,0.6695083379745483
1699090657452237000,0.948237060546875,1.1733194589614868,0.3969860374927521,0.7959573864936829
1699090657461808000,0.95780810546875,1.096961259841919,0.2833651304244995,0.9150761365890503
1699090657471915000,0.9679150390625,1.0065531730651855,0.28275424242019653,0.9847147464752197
1699090657481995000,0.9779951171875,0.9393580555915833,0.359112411737442,0.9908234477043152
1699090657491941000,0.987941162109375,0.9240863919258118,0.46784642338752747,0.9456194043159485
1699090657502411000,0.998410888671875,0.9601274728775024,0.6138432025909424,0.9126327037811279
1699090657511978000,1.00797802734375,0.9772316813468933,0.7983245253562927,0.9242390990257263
1699090657521988000,1.017988037109375,0.9949467778205872,1.0335075855255127,1.0152580738067627
1699090657531944000,1.02794384765625,1.003498911857605,1.1972194910049438,1.2064588069915771
1699090657542310000,1.038309814453125,1.013272762298584,1.1379655599594116,1.4404202699661255
1699090657551628000,1.0476279296875,1.0566442012786865,0.9571495056152344,1.580308437347412
1699090657561846000,1.057845947265625,1.1030699014663696,0.9461538791656494,1.4453071355819702
1699090657571715000,1.067715087890625,1.1104003190994263,1.0536662340164185,1.0793988704681396
1699090657581788000,1.077787841796875,1.1073459386825562,1.1116983890533447,0.8454375267028809
1699090657591719000,1.087718994140625,1.0761919021606445,1.0909289121627808,0.8704829812049866
1699090657601987000,1.097987060546875,1.0438159704208374,1.039616346359253,1.0897835493087769
1699090657611744000,1.107743896484375,1.0664180517196655,0.9834166765213013,1.4422528743743896
1699090657621800000,1.117800048828125,1.0743592977523804,1.0096838474273682,1.8270978927612305
1699090657631860000,1.12785986328125,0.983340322971344,1.1966086626052856,2.1313087940216064
1699090657642162000,1.138161865234375,0.8849910497665405,1.4818826913833618,2.4000895023345947
1699090657651774000,1.14777392578125,0.7591527700424194,1.7653242349624634,2.7281241416931152
1699090657661665000,1.1576650390625,0.6070473194122314,1.9895117282867432,3.031724214553833
1699090657672262000,1.168261962890625,0.49037206172943115,2.17338228225708,3.1746666431427
1699090657681836000,1.1778359375,0.4830417037010193,2.220418691635132,3.1025846004486084
1699090657691883000,1.187883056640625,0.6162103414535522,1.979127049446106,2.8942794799804688
1699090657701963000,1.197962890625,0.7322747111320496,1.590005874633789,2.5705208778381348
1699090657711861000,1.207861083984375,0.6259841322898865,1.2094367742538452,1.9242255687713623
1699090657722032000,1.2180322265625,0.5862779021263123,1.1019245386123657,2.034792184829712
1699090657732599000,1.22859912109375,0.6162103414535522,1.170952320098877,2.4196372032165527
1699090657741844000,1.237843994140625,0.6082690954208374,1.1165852546691895,2.8405234813690186
1699090657751787000,1.247787109375,0.5813909769058228,1.0255663394927979,3.1581733226776123
1699090657761867000,1.257866943359375,0.5581781268119812,0.8691849112510681,3.3988542556762695
1699090657771960000,1.2679599609375,0.5593998432159424,0.7256315350532532,3.545461893081665
1699090657782268000,1.278267822265625,0.6235406994819641,0.6547712087631226,3.579059362411499
1699090657791643000,1.287642822265625,0.6779077053070068,0.5466480255126953,3.4550538063049316
1699090657801826000,1.297825927734375,0.7096726894378662,0.5374850630760193,3.196047067642212
1699090657811876000,1.3078759765625,0.7102835774421692,0.6474407911300659,2.903442621231079
1699090657821998000,1.317998046875,0.68951416015625,0.8710174560546875,2.6945266723632812
1699090657832128000,1.3281279296875,0.6210972666740417,1.0805442333221436,2.556471109390259
1699090657841963000,1.337962890625,0.517861008644104,1.2601386308670044,2.5363125801086426
1699090657851944000,1.34794384765625,0.39446622133255005,1.3603205680847168,2.6358835697174072
1699090657861789000,1.357788818359375,0.26251932978630066,1.2796863317489624,2.7904324531555176
1699090657872046000,1.368046142578125,0.18188512325286865,1.092761516571045,2.930931329727173
1699090657881764000,1.37776416015625,0.18310685455799103,0.8386416435241699,2.995072364807129
1699090657891675000,1.3876748046875,0.26801711320877075,0.6480516791343689,2.9321532249450684
1699090657901644000,1.39764404296875,0.37797287106513977,0.6657667756080627,2.7629435062408447
1699090657911882000,1.407882080078125,0.45066583156585693,0.8923977613449097,2.5705208778381348
1699090657921797000,1.417797119140625,0.4671591818332672,1.2051607370376587,2.3164010047912598
1699090657931965000,1.42796484375,0.42500948905944824,1.4299591779708862,2.060448408126831
1699090657941856000,1.43785595703125,0.275958389043808,1.4611133337020874,1.9327776432037354
1699090657952390000,1.448389892578125,-0.011759156361222267,1.457448124885559,1.8741345405578613
1699090657961776000,1.457776123046875,-0.2353358417749405,1.4403438568115234,1.9034560918807983
1699090657972061000,1.46806103515625,-0.2952006161212921,1.4152984619140625,1.968207836151123
1699090657981866000,1.477865966796875,-0.2451096773147583,1.3896421194076538,1.9535470008850098
1699090657991947000,1.487947021484375,-0.15531249344348907,1.3505467176437378,1.920560359954834
1699090658001977000,1.49797705078125,0.057879481464624405,1.3334424495697021,1.8442021608352661
1699090658012238000,1.508238037109375,0.6180428862571716,1.2699124813079834,1.7043139934539795
1699090658022082000,1.51808203125,0.7267768979072571,1.2033281326293945,1.4776830673217773
1699090658032948000,1.528947998046875,0.6455318331718445,1.1758391857147217,1.3756685256958008
1699090658042090000,1.538090087890625,0.4567744731903076,1.3768138885498047,1.3158037662506104
1699090658051901000,1.54790087890625,0.2912299931049347,1.5832864046096802,1.2883148193359375
1699090658061963000,1.557962890625,0.19776763021945953,1.7109571695327759,1.292590856552124
1699090658071768000,1.56776806640625,0.23869559168815613,1.750052571296692,1.299310326576233
1699090658081917000,1.5779169921875,0.38408151268959045,1.6602554321289062,1.282817006111145
1699090658092074000,1.588073974609375,0.5294674634933472,1.5154802799224854,1.2424999475479126
1699090658101956000,1.5979560546875,0.6388123035430908,1.4733306169509888,1.179580807685852
1699090658112038000,1.608037841796875,0.536797821521759,1.476995825767517,1.0690141916275024
1699090658121968000,1.617968017578125,0.19776763021945953,1.6168839931488037,0.9553932547569275
1699090658132038000,1.628037841796875,-0.1736384481191635,1.654146671295166,0.959669291973114
1699090658142004000,1.63800390625,-0.4381431043148041,1.6345990896224976,1.0140362977981567
1699090658151914000,1.6479140625,-0.5994115471839905,1.4562263488769531,1.0965031385421753
1699090658162040000,1.6580400390625,-0.6336199641227722,1.174006700515747,1.149037480354309
1699090658172101000,1.66810107421875,-0.5138903856277466,0.9253844618797302,1.0604621171951294
1699090658182070000,1.678070068359375,-0.2915354371070862,0.8001571297645569,0.8973610401153564
1699090658192078000,1.688078125,-0.11499538272619247,0.7317401766777039,0.7116580009460449
1699090658202074000,1.69807421875,-0.02886338345706463,0.6810383796691895,0.5998696684837341
1699090658212058000,1.70805810546875,-0.09239336848258972,0.734794557094574,0.6017022728919983
1699090658222061000,1.71806103515625,-0.3269656300544739,0.7036404013633728,0.7226535677909851
1699090658232065000,1.72806494140625,-0.48090365529060364,0.6657667756080627,0.8100073337554932
1699090658241935000,1.73793505859375,-0.5597052574157715,0.725020706653595,0.7648032903671265
1699090658251820000,1.747820068359375,-0.5163338780403137,0.8588001728057861,0.5766568183898926
1699090658261785000,1.75778515625,-0.23167064785957336,0.9974665641784668,0.5002986192703247
1699090658272092000,1.768091796875,-0.011759156361222267,1.1281917095184326,0.5424483418464661
1699090658282639000,1.77863916015625,0.19349156320095062,1.1959978342056274,0.607810914516449
1699090658291902000,1.78790185546875,0.4726569950580597,1.264414668083191,0.759916365146637
1699090658301982000,1.79798193359375,0.7133378982543945,1.2693016529083252,0.9938777685165405
1699090658311896000,1.80789599609375,0.9680687189102173,1.2705233097076416,1.321912407875061
1699090658321955000,1.817955078125,1.3180944919586182,1.2228758335113525,1.6322319507598877
1699090658331973000,1.82797314453125,2.1928534507751465,1.2033281326293945,2.191173553466797
1699090658341877000,1.837876953125,2.53249454498291,1.4366786479949951,2.6108381748199463
1699090658351969000,1.847968994140625,2.7432432174682617,1.6297121047973633,3.0170633792877197
1699090658361901000,1.857901123046875,2.930778741836548,1.9058232307434082,3.36098051071167
1699090658371951000,1.867951171875,3.0505082607269287,2.321211576461792,3.651752471923828
1699090658381931000,1.877930908203125,3.238654851913452,2.67856764793396,3.7415497303009033
1699090658391934000,1.887933837890625,3.663206100463867,3.0151546001434326,3.6859610080718994
1699090658402741000,1.898740966796875,4.109748840332031,3.337691307067871,3.53752064704895
1699090658411967000,1.907967041015625,4.286288738250732,3.4470362663269043,3.347541570663452
1699090658421968000,1.9179677734375,4.239252090454102,3.211242198944092,3.2168164253234863
1699090658431856000,1.927856201171875,4.126852989196777,3.0756301879882812,3.26629638671875
1699090658442030000,1.938030029296875,3.9900190830230713,3.1232776641845703,3.4776558876037598
1699090658451827000,1.947826904296875,3.785989999771118,2.969339609146118,3.7091736793518066
1699090658462124000,1.9581240234375,3.4072535037994385,2.6468026638031006,3.772092819213867
1699090658472122000,1.9681220703125,2.972928524017334,2.502027750015259,3.7146716117858887
1699090658481951000,1.977950927734375,2.5581510066986084,2.2998313903808594,3.5320229530334473
1699090658491792000,1.9877919921875,1.9924896955490112,1.7060703039169312,3.2143728733062744
1699090658501837000,1.997837158203125,1.3058772087097168,0.91438889503479,2.8063149452209473
1699090658511766000,2.00776611328125,0.698677122592926,0.3255148231983185,2.3713788986206055
1699090658521713000,2.017712890625,0.2814561724662781,0.029245173558592796,1.968207836151123
1699090658531591000,2.0275908203125,0.1342376321554184,-0.04711298272013664,1.613295078277588
1699090658541696000,2.037696044921875,0.24419337511062622,0.06039930135011673,1.2932016849517822
1699090658551647000,2.04764697265625,0.4323398768901825,0.45440739393234253,1.102611780166626
1699090658561616000,2.057615966796875,0.5551238059997559,1.0573313236236572,1.094059705734253
1699090658571659000,2.067658935546875,0.5648976564407349,1.8936059474945068,1.1753047704696655
1699090658581630000,2.0776298828125,0.43967026472091675,2.5680010318756104,1.2754865884780884
1699090658591660000,2.087659912109375,0.244804248213768,2.8679358959198,1.188132882118225
1699090658601650000,2.09764990234375,-0.09239336848258972,2.7078893184661865,0.8429940342903137
1699090658611723000,2.107722900390625,-0.5432119369506836,2.199038505554199,0.30054569244384766
1699090658621609000,2.11760888671875,-1.0074695348739624,1.6907986402511597,-0.23884831368923187
1699090658631630000,2.127630126953125,-1.4906638860702515,1.4427874088287354,-0.5534439086914062
1699090658641765000,2.13776513671875,-1.8657351732254028,1.6510924100875854,-0.6572909951210022
1699090658651605000,2.14760498046875,-1.9280434846878052,1.9424750804901123,-0.6029239892959595
1699090658661789000,2.157788818359375,-1.6843081712722778,2.106187105178833,-0.5082398653030396
1699090658671718000,2.1677177734375,-1.487609624862671,2.2955551147460938,-0.4251621961593628
1699090658681871000,2.17787109375,-1.286634922027588,2.7329347133636475,-0.3793473243713379
1699090658691705000,2.187705078125,-1.0966558456420898,3.1739795207977295,-0.38667771220207214
1699090658701875000,2.197875,-1.0160216093063354,3.220405101776123,-0.5406157374382019
1699090658711912000,2.207911865234375,-1.133307695388794,2.77630615234375,-0.8912523984909058
1699090658721802000,2.217802001953125,-1.4167492389678955,2.137341022491455,-1.3701707124710083
1699090658731912000,2.227911865234375,-1.819920301437378,1.5307519435882568,-1.8509217500686646
1699090658741849000,2.23784912109375,-2.161393880844116,1.0616074800491333,-2.1820106506347656
1699090658751893000,2.24789306640625,-2.268906354904175,0.8410850763320923,-2.2730295658111572
1699090658761913000,2.2579130859375,-2.1534526348114014,0.9076694250106812,-2.1282544136047363
1699090658771913000,2.267912841796875,-1.9579758644104004,1.1422415971755981,-1.9113973379135132
1699090658781962000,2.2779619140625,-1.8602373600006104,1.3878095149993896,-1.7427985668182373
1699090658791928000,2.287927978515625,-1.8962783813476562,1.5796211957931519,-1.6383405923843384
1699090658801991000,2.297990966796875,-2.015397071838379,1.654146671295166,-1.5937473773956299
1699090658811963000,2.307962890625,-2.1711678504943848,1.5698473453521729,-1.6395623683929443
1699090658821911000,2.3179111328125,-2.3128886222839355,1.3193925619125366,-1.786780834197998
1699090658831961000,2.327961181640625,-2.446057081222534,0.9858601689338684,-1.9590448141098022
1699090658841927000,2.337927001953125,-2.5645649433135986,0.6370561122894287,-2.046398639678955
1699090658851963000,2.347962890625,-2.6287059783935547,0.3352886736392975,-1.9236146211624146
1699090658862067000,2.35806689453125,-2.6678011417388916,0.1526399552822113,-1.6267341375350952
1699090658871897000,2.36789697265625,-2.6812403202056885,0.10071640461683273,-1.2571606636047363
1699090658882000000,2.377999755859375,-2.657416582107544,0.03779728710651398,-0.9004153609275818
1699090658891987000,2.387987060546875,-2.6555838584899902,-0.14790575206279755,-0.6218608021736145
1699090658902008000,2.398008056640625,-2.6891815662384033,-0.40630173683166504,-0.4801400899887085
1699090658911948000,2.407947998046875,-2.755765914916992,-0.5944482684135437,-0.4343251883983612
1699090658921981000,2.41798095703125,-2.7924177646636963,-0.7514405846595764,-0.4398229718208313
1699090658931920000,2.427919921875,-2.824793577194214,-0.8839983940124512,-0.45204028487205505
1699090658941986000,2.437986083984375,-2.8327348232269287,-0.9554696083068848,-0.43249258399009705
1699090658952018000,2.448017822265625,-2.7850873470306396,-0.9292023777961731,-0.33719760179519653
1699090658961939000,2.45793896484375,-2.7068965435028076,-0.7752643823623657,0.07880161702632904
1699090658971903000,2.467903076171875,-2.6054930686950684,-0.7905359864234924,0.27000242471694946
1699090658981806000,2.47780615234375,-2.4717135429382324,-0.8003098368644714,0.4294382631778717
1699090658991780000,2.487780029296875,-2.3208298683166504,-0.7147886753082275,0.5827654600143433
1699090659002141000,2.498140869140625,-2.180330753326416,-0.6335436105728149,0.6927211880683899
1699090659011977000,2.50797705078125,-2.1363484859466553,-0.6860780119895935,0.7098253965377808
1699090659021901000,2.517901123046875,-2.2157609462738037,-0.8558985590934753,0.6939429044723511
1699090659032023000,2.52802294921875,-2.2872321605682373,-1.0403798818588257,0.7336491346359253
1699090659041876000,2.5378759765625,-2.3189971446990967,-1.2077569961547852,0.8185594081878662
1699090659052039000,2.548038818359375,-2.3550381660461426,-1.3305408954620361,0.8930850028991699
1699090659061985000,2.557985107421875,-2.3794727325439453,-1.3360387086868286,0.9450085163116455
1699090659071724000,2.56772412109375,-2.3275492191314697,-1.1985939741134644,0.99876469373703
1699090659081647000,2.577647216796875,-2.193769693374634,-0.9536370038986206,1.1020009517669678
1699090659091796000,2.5877958984375,-2.023949384689331,-0.6879106163978577,1.2412781715393066
1699090659101993000,2.597992919921875,-1.831526756286621,-0.5052618980407715,1.395827054977417
1699090659111899000,2.60789892578125,-1.7234035730361938,-0.5132031440734863,1.519832730293274
1699090659121835000,2.6178349609375,-1.8083138465881348,-0.7996989488601685,1.4593570232391357
1699090659131983000,2.627983154296875,-2.0471620559692383,-1.2370784282684326,1.1869112253189087
1699090659141874000,2.6378740234375,-2.2963950634002686,-1.669571042060852,0.8032878041267395
1699090659151903000,2.647903076171875,-2.422844171524048,-1.887039065361023,0.4489859640598297
1699090659161995000,2.6579951171875,-2.4827091693878174,-1.813124418258667,0.23518311977386475
1699090659172024000,2.668024169921875,-2.554180383682251,-1.7062230110168457,0.25106561183929443
1699090659181891000,2.67789111328125,-2.6311492919921875,-1.7123316526412964,0.43127086758613586
1699090659191762000,2.687761962890625,-2.6006059646606445,-1.577330470085144,0.7342600226402283
1699090659201975000,2.69797509765625,-2.3825271129608154,-1.2835042476654053,1.0555751323699951
1699090659211867000,2.707866943359375,-2.074040174484253,-0.8754462599754333,1.2596040964126587
1699090659221926000,2.71792578125,-1.8755090236663818,-0.31039589643478394,1.3341296911239624
1699090659231962000,2.727962158203125,-1.8596265316009521,0.14469870924949646,1.2944234609603882
1699090659241899000,2.73789892578125,-2.0086777210235596,0.30169108510017395,1.2278391122817993
1699090659252011000,2.748010986328125,-2.1962132453918457,0.25037840008735657,1.2235630750656128
1699090659261809000,2.757808837890625,-2.3495404720306396,0.22227859497070312,1.3628404140472412
1699090659271849000,2.767848876953125,-2.4075727462768555,0.5209916830062866,2.1697933673858643
1699090659281789000,2.777788818359375,-2.2408063411712646,0.6773731708526611,2.596788167953491
1699090659291999000,2.7879990234375,-2.023949384689331,0.6541603207588196,2.853351593017578
1699090659302039000,2.7980390625,-1.868789553642273,0.47945284843444824,2.9181032180786133
1699090659312022000,2.80802197265625,-1.8602373600006104,0.12209668755531311,2.8173105716705322
1699090659321924000,2.817924072265625,-2.0361666679382324,-0.36415204405784607,2.5943446159362793
1699090659332027000,2.82802685546875,-2.2744040489196777,-0.7178429961204529,2.4135286808013916
1699090659341978000,2.83797802734375,-2.3855814933776855,-0.8497899174690247,2.308459758758545
1699090659352025000,2.848025146484375,-2.303114652633667,-0.7563275098800659,2.2626447677612305
1699090659362018000,2.85801806640625,-2.0367774963378906,-0.467999130487442,2.2821924686431885
1699090659371921000,2.8679208984375,-1.8125898838043213,-0.22976168990135193,2.168571710586548
1699090659382051000,2.878051025390625,-1.666593074798584,-0.06299547851085663,1.9504927396774292
1699090659391987000,2.887987060546875,-1.5230398178100586,0.020082194358110428,1.712866187095642
1699090659402161000,2.898160888671875,-1.3972015380859375,0.07994698733091354,1.5351043939590454
1699090659412027000,2.90802685546875,-1.3135130405426025,0.06223189830780029,1.4288138151168823
1699090659421960000,2.9179599609375,-1.2909109592437744,0.046960264444351196,1.5320500135421753
1699090659431937000,2.92793701171875,-1.1571314334869385,-0.008017606101930141,1.739133358001709
1699090659441915000,2.937914794921875,-1.0465649366378784,-0.14424055814743042,1.7568484544754028
1699090659451842000,2.947842041015625,-1.010523796081543,-0.37514761090278625,1.5619823932647705
1699090659461736000,2.95773583984375,-1.0025825500488281,-0.5034292936325073,1.3640620708465576
1699090659471637000,2.967636962890625,-0.9036223888397217,-0.48143815994262695,1.2192870378494263
1699090659481688000,2.97768798828125,-0.6678284406661987,-0.3433826267719269,1.076344609260559
1699090659491752000,2.987751953125,-0.3703370690345764,-0.1552361249923706,0.9236282706260681
1699090659501794000,2.9977939453125,-0.07773260027170181,-0.04589125141501427,0.7739662528038025
1699090659511756000,3.007756103515625,0.1788308024406433,-0.04894557595252991,0.6579018831253052
1699090659521761000,3.017760986328125,0.3205515444278717,-0.23525947332382202,0.5345070958137512
1699090659531871000,3.02787109375,0.12446379661560059,-0.5510768294334412,0.3243694305419922
1699090659541902000,3.037902099609375,-0.1889100819826126,-0.7795404195785522,0.13561208546161652
1699090659551902000,3.04790185546875,-0.014202617108821869,-0.39103010296821594,-0.036651913076639175
1699090659561984000,3.05798388671875,0.19288070499897003,-0.2358703464269638,-0.14844025671482086
1699090659571944000,3.06794384765625,0.4677700698375702,-0.6469826698303223,-0.4105014503002167
1699090659582092000,3.078092041015625,-1.3293955326080322,-2.0794615745544434,-3.5527923107147217
1699090659592068000,3.088068115234375,-1.8559613227844238,-0.8198575377464294,-3.244305372238159
1699090659602076000,3.098075927734375,-1.0129673480987549,-0.013515393249690533,-1.9834794998168945
1699090659611820000,3.107820068359375,-0.05390885844826698,0.2955824136734009,-1.216843605041504
1699090659622031000,3.118031005859375,0.2509129047393799,0.22472205758094788,-1.056796908378601
1699090659631844000,3.127843994140625,0.4616613984107971,0.29252809286117554,-0.9657779335975647
1699090659641928000,3.137927978515625,0.3914119005203247,0.1227075532078743,-0.6108652353286743
1699090659651699000,3.147698974609375,-0.09056077152490616,0.12881620228290558,-0.5222898125648499
1699090659661945000,3.157945068359375,-0.3171917796134949,0.34200817346572876,-0.43188172578811646
1699090659672081000,3.168080810546875,0.08659014850854874,0.6162866950035095,-0.10690141469240189
1699090659681929000,3.177928955078125,0.49953505396842957,0.8423067927360535,0.07391469180583954
1699090659691858000,3.18785791015625,0.7451028823852539,1.0225120782852173,0.0757472887635231
1699090659701952000,3.197951904296875,0.831845760345459,0.9980774521827698,-0.03848451003432274
1699090659712103000,3.20810302734375,0.7805330753326416,0.7109707593917847,-0.19914206862449646
1699090659721935000,3.21793505859375,0.6742424964904785,0.330401748418808,-0.2932153046131134
1699090659731880000,3.2278798828125,0.660192608833313,-0.00618501054123044,-0.2718350291252136
1699090659741907000,3.237906982421875,0.6858489513397217,-0.32016974687576294,-0.2724458873271942
1699090659752033000,3.248032958984375,0.6290385127067566,-0.549244225025177,-0.3842342495918274
1699090659761937000,3.25793701171875,0.5514585971832275,-0.5419138073921204,-0.5125159621238708
1699090659771862000,3.267862060546875,0.5337435007095337,-0.3470478057861328,-0.5668829679489136
1699090659781994000,3.277993896484375,0.6284276247024536,-0.19005544483661652,-0.5094616413116455
1699090659791968000,3.287968017578125,0.8013024926185608,-0.09842566400766373,-0.40133845806121826
1699090659802059000,3.29805908203125,0.9246972799301147,-0.08009970188140869,-0.3066543638706207
1699090659811962000,3.307962158203125,0.9137017130851746,-0.08193229883909225,-0.21868975460529327
1699090659821870000,3.3178701171875,0.8691084980964661,-0.07215845584869385,-0.11301007121801376
1699090659831960000,3.3279599609375,0.8910996913909912,-0.014737123623490334,-0.0006108652451075613
1699090659841994000,3.337993896484375,0.9570731520652771,0.05245805159211159,0.08796459436416626
1699090659851840000,3.347840087890625,1.0645854473114014,0.05367978289723396,0.1319468915462494
1699090659861854000,3.35785400390625,1.2209669351577759,-0.03611740842461586,0.13988813757896423
1699090659871665000,3.367664794921875,1.3993395566940308,-0.14790575206279755,0.11789698898792267
1699090659881846000,3.377845947265625,1.523956060409546,-0.23525947332382202,0.05619960278272629
1699090659892227000,3.38822705078125,1.6180293560028076,-0.25419628620147705,-0.13988813757896423
1699090659901902000,3.397902099609375,1.5972598791122437,-0.20777054131031036,-0.20586158335208893
1699090659911882000,3.407882080078125,1.5392277240753174,-0.1698969006538391,-0.1612684279680252
1699090659921763000,3.41776318359375,1.4952454566955566,-0.07338018715381622,-0.009162978269159794
1699090659931903000,3.427903076171875,1.4359915256500244,0.018249599263072014,0.1612684279680252
1699090659941906000,3.437906005859375,1.3235923051834106,0.020082194358110428,0.2620611786842346
1699090659952127000,3.448126953125,1.202030062675476,-0.023289237171411514,0.2773328125476837
1699090659962020000,3.45802001953125,1.117730736732483,-0.0391717329621315,0.21807889640331268
1699090659972049000,3.468048828125,1.0664180517196655,-0.017180584371089935,0.07513642311096191
1699090659981983000,3.47798291015625,1.0768027305603027,0.08605564385652542,-0.08429940044879913
1699090659992240000,3.488240234375,1.107956886291504,0.1837940812110901,-0.2119702398777008
1699090660002871000,3.49887109375,0.9955576062202454,0.1526399552822113,-0.3805690407752991
1699090660012035000,3.50803515625,0.8422304391860962,0.10377073287963867,-0.5674937963485718
1699090660022026000,3.51802587890625,0.7359399199485779,0.011530081741511822,-0.8735373020172119
1699090660032146000,3.52814599609375,0.7909177541732788,-0.0190131813287735,-1.433700680732727
1699090660042147000,3.53814697265625,1.0224356651306152,0.22472205758094788,-2.0250182151794434
1699090660052113000,3.54811279296875,1.2111930847167969,0.4599051773548126,-2.342057466506958
1699090660062119000,3.558118896484375,1.2026410102844238,0.4672355651855469,-2.2730295658111572
1699090660071811000,3.56781103515625,0.9356928467750549,0.18684840202331543,-1.8936822414398193
1699090660082557000,3.578556884765625,0.5813909769058228,-0.14912748336791992,-1.3927727937698364
1699090660092001000,3.5880009765625,0.33399057388305664,-0.46127963066101074,-0.978606104850769
1699090660102011000,3.598010986328125,0.35842517018318176,-0.5364160537719727,-0.9053022861480713
1699090660112017000,3.608016845703125,0.5826127529144287,-0.4625013470649719,-1.0348057746887207
1699090660121948000,3.617947998046875,0.8721628785133362,-0.3421608805656433,-1.224173903465271
1699090660132015000,3.62801513671875,1.1042916774749756,-0.29329168796539307,-1.36955988407135
1699090660141924000,3.637924072265625,1.2276864051818848,-0.34399348497390747,-1.4660766124725342
1699090660151983000,3.647983154296875,1.1574369668960571,-0.30428725481033325,-1.4654656648635864
1699090660162029000,3.658029052734375,0.8422304391860962,-0.316504567861557,-1.380555510520935
1699090660172089000,3.668089111328125,0.37491855025291443,-0.567570149898529,-1.2431107759475708
1699090660182053000,3.67805322265625,-0.1241583600640297,-0.8858309388160706,-1.2009611129760742
1699090660191909000,3.6879091796875,-0.5487096905708313,-1.166828989982605,-1.3066407442092896
1699090660201856000,3.69785595703125,-0.5707008838653564,-1.3806318044662476,-1.7061465978622437
1699090660212022000,3.70802197265625,-0.28909197449684143,-1.2670109272003174,-1.9083430767059326
1699090660221982000,3.71798193359375,0.03222314268350601,-1.1540007591247559,-2.1032090187072754
1699090660232019000,3.72801904296875,0.33337971568107605,-1.0684796571731567,-2.2180516719818115
1699090660242026000,3.73802587890625,0.6180428862571716,-0.9524152874946594,-2.182621479034424
1699090660252001000,3.7480009765625,0.8611672520637512,-0.7935903072357178,-2.0024163722991943
1699090660262050000,3.758050048828125,1.0590876340866089,-0.5803983211517334,-1.6859880685806274
1699090660272080000,3.768079833984375,1.250899314880371,-0.30917418003082275,-1.1948524713516235
1699090660282016000,3.77801611328125,1.4787520170211792,0.01702786795794964,-0.5736024379730225
1699090660292020000,3.78802001953125,1.649794340133667,0.3187952935695648,0.09224065393209457
1699090660302061000,3.79806103515625,1.5221234560012817,0.43791401386260986,0.49357911944389343
1699090660312043000,3.80804296875,0.9870055317878723,0.44341179728507996,0.42638394236564636
1699090660321701000,3.817701171875,0.41462478041648865,0.3132975101470947,0.42699480056762695
1699090660332021000,3.82802099609375,-0.011759156361222267,0.056123245507478714,0.46731191873550415
1699090660342067000,3.83806689453125,-0.24266621470451355,-0.16256651282310486,0.513126790523529
1699090660351843000,3.847843017578125,-0.2744311988353729,-0.2407572716474533,0.513737678527832
1699090660361890000,3.85789013671875,-0.17791450023651123,-0.277409166097641,0.4141666293144226
1699090660371938000,3.86793798828125,-0.10277807712554932,-0.3079524338245392,0.13988813757896423
1699090660381784000,3.8777841796875,-0.098502017557621,-0.2804635167121887,-0.14538592100143433
1699090660391769000,3.88776904296875,-0.10583240538835526,-0.2010510265827179,-0.1966986060142517
1699090660401869000,3.897869140625,-0.04230241850018501,-0.022678371518850327,-0.004886921960860491
1699090660412005000,3.908005126953125,0.11163562536239624,0.20212003588676453,0.24984388053417206
1699090660421790000,3.9177900390625,0.3217732608318329,0.439746618270874,0.4337143301963806
1699090660431860000,3.92785986328125,0.5056437253952026,0.5991824269294739,0.5656611919403076
1699090660441858000,3.937858154296875,0.5490151643753052,0.601015031337738,0.6939429044723511
1699090660451937000,3.94793701171875,0.39385536313056946,0.5307655334472656,0.7733554244041443
1699090660461682000,3.957681884765625,0.07987063378095627,0.4055381715297699,0.788016140460968
1699090660471800000,3.967800048828125,-0.30375275015830994,0.2393828183412552,0.749531626701355
1699090660481827000,3.9778271484375,-0.6269004344940186,0.06039930135011673,0.6579018831253052
1699090660491891000,3.987890869140625,-0.7967209815979004,-0.06238461285829544,0.5106833577156067
1699090660501981000,3.99798095703125,-0.7582364678382874,-0.08804095536470413,0.2889392673969269
1699090660512057000,4.00805712890625,-0.20234911143779755,0.008475755341351032,-0.21441370248794556
1699090660522054000,4.018053955078125,0.08720101416110992,0.11965323239564896,-0.3640756905078888
1699090660532063000,4.02806298828125,0.2802344262599945,0.258930504322052,-0.3830125033855438
1699090660542068000,4.03806787109375,0.33460143208503723,0.3548363447189331,-0.26939156651496887
1699090660551850000,4.04785009765625,0.30894508957862854,0.40309470891952515,-0.1362229436635971
1699090660561828000,4.057828125,0.35781431198120117,0.6278930902481079,-0.0354301854968071
1699090660571842000,4.067842041015625,0.5141957998275757,0.7861071825027466,-0.031154127791523933
1699090660581978000,4.07797802734375,0.8306240439414978,0.9064476490020752,-0.07147123664617538
1699090660591866000,4.0878662109375,1.2234103679656982,0.9742537140846252,-0.1869247704744339
1699090660601770000,4.09777001953125,1.5905404090881348,0.8911760449409485,-0.3689626157283783
1699090660611952000,4.1079521484375,1.9088011980056763,0.7543421983718872,-0.5681046843528748
1699090660621805000,4.11780517578125,2.166586399078369,0.6767623424530029,-0.8234463334083557
1699090660632214000,4.128214111328125,2.246609687805176,0.47456592321395874,-0.9767735004425049
1699090660641947000,4.13794677734375,1.6278032064437866,-0.3433826267719269,-0.769690215587616
1699090660651700000,4.147699951171875,0.6296493411064148,-0.23342688381671906,-0.6780604124069214
1699090660661950000,4.157949951171875,-0.30925053358078003,-0.1149190217256546,-0.7165449261665344
1699090660672007000,4.1680068359375,-0.7026477456092834,-0.022678371518850327,-0.8558222055435181
1699090660681887000,4.177886962890625,-0.6604980230331421,0.11293371021747589,-1.0512990951538086
1699090660691943000,4.18794287109375,-0.584750771522522,0.25160011649131775,-1.216843605041504
1699090660701762000,4.197761962890625,-0.5823072791099548,0.3609450161457062,-1.2626584768295288
1699090660711945000,4.207945068359375,-0.48579058051109314,0.3340669274330139,-1.188132882118225
1699090660721982000,4.21798193359375,-0.20723603665828705,0.25526532530784607,-1.1276572942733765
1699090660732012000,4.228011962890625,0.1391245573759079,0.10499246418476105,-1.1814134120941162
1699090660741948000,4.237947998046875,0.4366159439086914,-0.06360634416341782,-1.3200798034667969
1699090660751842000,4.247842041015625,0.6681338548660278,-0.15218180418014526,-1.4758504629135132
1699090660762292000,4.2582919921875,0.9375254511833191,-0.05077817291021347,-1.5222761631011963
1699090660771934000,4.267933837890625,1.183704137802124,0.0768926590681076,-1.444696307182312
1699090660781954000,4.2779541015625,1.247844934463501,0.21983513236045837,-1.2626584768295288
1699090660792217000,4.288217041015625,1.1311696767807007,0.39209914207458496,-1.0018190145492554
1699090660801844000,4.297843994140625,0.9137017130851746,0.4867832362651825,-0.6866125464439392
1699090660812015000,4.30801513671875,0.7005097270011902,0.5955172777175903,-0.33169981837272644
1699090660821939000,4.31793896484375,0.46043968200683594,0.7219663858413696,0.01710422709584236
1699090660832028000,4.32802783203125,0.3669773042201996,0.9406561255455017,0.5442809462547302
1699090660842357000,4.33835693359375,0.17699819803237915,1.077489972114563,0.7367035150527954
1699090660851981000,4.34798095703125,-0.2396118938922882,1.352379322052002,0.949895441532135
1699090660862061000,4.35806103515625,-0.6928738951683044,1.428126573562622,0.9712757468223572
1699090660872037000,4.368037109375,-0.9451612234115601,1.180726170539856,0.7012733221054077
1699090660881981000,4.37798095703125,-0.9964739084243774,0.9382126331329346,0.37568211555480957
1699090660891927000,4.387927001953125,-0.9469938278198242,0.8343655467033386,0.08552113175392151
1699090660901933000,4.39793310546875,-0.8584184050559998,0.9119454622268677,-0.15271630883216858
1699090660912024000,4.408024169921875,-0.8645270466804504,0.9180541038513184,-0.2828305959701538
1699090660922072000,4.418072021484375,-1.0221302509307861,0.8685740232467651,-0.3194825351238251
1699090660932013000,4.428012939453125,-1.2597568035125732,0.8001571297645569,-0.3072652220726013
1699090660942023000,4.43802294921875,-1.4741705656051636,0.6199518442153931,-0.2565633952617645
1699090660951928000,4.447927978515625,-1.571908950805664,0.4562399685382843,-0.18936823308467865
1699090660961916000,4.457916015625,-1.579850196838379,0.48372891545295715,-0.05864306539297104
1699090660972080000,4.468080078125,-1.5963436365127563,0.6089562773704529,0.06658431142568588
1699090660981842000,4.477842041015625,-1.5963436365127563,0.6572146415710449,0.0012217304902151227
1699090660992020000,4.48802001953125,-1.5468635559082031,0.6559929251670837,-0.23273965716362
1699090661001947000,4.49794677734375,-1.4674509763717651,0.7683921456336975,-0.39767327904701233
1699090661011921000,4.5079208984375,-1.373377799987793,0.8807913064956665,-0.45326200127601624
1699090661021934000,4.51793408203125,-1.1888965368270874,0.7916049957275391,-0.4746423065662384
1699090661032042000,4.5280419921875,-0.8510879874229431,0.5380959510803223,-0.3927863538265228
1699090661042056000,4.538055908203125,-0.4381431043148041,0.34139731526374817,-0.2480112910270691
1699090661051965000,4.54796484375,-0.044745877385139465,0.26626089215278625,-0.2168571650981903
1699090661062032000,4.558031982421875,0.23197607696056366,0.26748260855674744,-0.3830125033855438
1699090661072012000,4.568011962890625,0.32788193225860596,0.40920335054397583,-0.5925393104553223
1699090661082021000,4.578021240234375,0.31383201479911804,0.4855615198612213,-0.7244861721992493
1699090661092039000,4.588038818359375,0.3223841190338135,0.4354705512523651,-0.7929030656814575
1699090661101946000,4.597946044921875,0.3706424832344055,0.2803107798099518,-0.7916813492774963
1699090661111920000,4.607920166015625,0.48976120352745056,0.05490151420235634,-0.7367035150527954
1699090661121930000,4.617929931640625,0.6265950202941895,-0.1760055422782898,-0.7153232097625732
1699090661132036000,4.6280361328125,0.8483390808105469,-0.37087157368659973,-0.9260717034339905
1699090661142008000,4.638008056640625,0.9601274728775024,-0.5406920909881592,-1.0598511695861816
1699090661151696000,4.64769580078125,1.0291552543640137,-0.548633337020874,-1.140485405921936
1699090661162013000,4.658012939453125,1.0059423446655273,-0.43012550473213196,-1.2009611129760742
1699090661172259000,4.668259033203125,0.9045386910438538,-0.37942367792129517,-1.1942415237426758
1699090661182035000,4.678034912109375,0.6858489513397217,-0.5351943373680115,-0.8973610401153564
1699090661191910000,4.687909912109375,0.35781431198120117,-0.5816200971603394,-0.4404338300228119
1699090661201960000,4.6979599609375,0.09941831976175308,-0.42096251249313354,-0.3842342495918274
1699090661211882000,4.707882080078125,0.004123340360820293,-0.25297456979751587,-0.45631635189056396
1699090661222027000,4.718027099609375,-0.0429132841527462,-0.18700112402439117,-0.4202753007411957
1699090661232043000,4.72804296875,-0.07895433157682419,-0.10270171612501144,-0.3604104816913605
1699090661242365000,4.738364990234375,-0.10094548016786575,0.11659890413284302,-0.32559117674827576
1699090661251949000,4.747948974609375,0.005955935921519995,0.3444516360759735,-0.2583959996700287
1699090661262010000,4.758010009765625,0.20265454053878784,0.4195880591869354,-0.2583959996700287
1699090661271916000,4.767916015625,0.3553708493709564,0.4018729627132416,-0.32131510972976685
1699090661281979000,4.777978759765625,0.40851613879203796,0.2906954884529114,-0.3854559659957886
1699090661291964000,4.7879638671875,0.3449861407279968,0.20456349849700928,-0.41722095012664795
1699090661301887000,4.797886962890625,0.21792617440223694,0.1837940812110901,-0.4092797040939331
1699090661311945000,4.807945068359375,0.16294831037521362,0.12087496370077133,-0.3805690407752991
1699090661321952000,4.817951904296875,0.22708915174007416,0.10132727026939392,-0.37201693654060364
1699090661331998000,4.827998046875,0.27779096364974976,0.07628180086612701,-0.3793473243713379
1699090661341939000,4.83793896484375,0.24602597951889038,0.03901901841163635,-0.37629300355911255
1699090661351824000,4.847823974609375,0.18188512325286865,-0.00557414535433054,-0.36224308609962463
1699090661361884000,4.8578837890625,0.11713340878486633,-0.010461067780852318,-0.3335324227809906
1699090661371769000,4.86776904296875,0.05421429127454758,0.05734497308731079,-0.2736676335334778
1699090661381803000,4.877802978515625,0.06459899991750717,0.08116871863603592,-0.21624629199504852
1699090661391793000,4.88779296875,0.1036943718791008,0.22594378888607025,-0.16432274878025055
1699090661401874000,4.8978740234375,0.08170322328805923,0.36155587434768677,-0.10995574295520782
1699090661411994000,4.907994140625,0.013897184282541275,0.46784642338752747,-0.08124507963657379
1699090661421945000,4.917945068359375,-0.058795779943466187,0.5374850630760193,-0.10018189996480942
1699090661431991000,4.927990966796875,-0.06368270516395569,0.5613088011741638,-0.1411098688840866
1699090661441992000,4.937991943359375,0.00045814894838258624,0.46906813979148865,-0.16982053220272064
1699090661451966000,4.947966064453125,0.1495092660188675,0.3908773958683014,-0.2535090744495392
1699090661461854000,4.95785400390625,0.24602597951889038,0.41836634278297424,-0.27000242471694946
1699090661471798000,4.967798095703125,0.37797287106513977,0.5081635117530823,-0.2791654169559479
1699090661481972000,4.977971923828125,0.4628831446170807,0.6370561122894287,-0.2577851414680481
1699090661491871000,4.98787109375,0.4836525619029999,0.8386416435241699,-0.21502456068992615
1699090661501947000,4.99794677734375,0.5404630303382874,0.9125562906265259,-0.17287486791610718
1699090661511819000,5.007819091796875,0.7915286421775818,0.8893434405326843,-0.11056660860776901
1699090661521996000,5.01799609375,1.144608736038208,0.9186649918556213,-0.08307767659425735
1699090661531814000,5.02781396484375,1.3498594760894775,0.8685740232467651,-0.17409659922122955
1699090661541891000,5.03789111328125,1.3419182300567627,0.7867180705070496,-0.3830125033855438
1699090661551939000,5.04793896484375,1.1470521688461304,0.6712645292282104,-0.5839871764183044
1699090661561978000,5.05797802734375,0.8257371187210083,0.6181192994117737,-0.5962044596672058
1699090661571846000,5.067845947265625,0.4983133375644684,0.6291148662567139,-0.38240164518356323
1699090661582025000,5.07802490234375,0.346818745136261,0.5765804052352905,-0.16310101747512817
1699090661591952000,5.087951904296875,0.3407101035118103,0.5863542556762695,-0.1270599663257599
1699090661601797000,5.097797119140625,0.33399057388305664,0.5655848383903503,-0.1765400618314743
1699090661611838000,5.107837890625,0.2942843437194824,0.514272153377533,-0.17592918872833252
1699090661621876000,5.1178759765625,0.19532416760921478,0.5063309073448181,-0.14477506279945374
1699090661631828000,5.127827880859375,0.013897184282541275,0.5759695768356323,-0.08429940044879913
1699090661641770000,5.13777001953125,-0.18707747757434845,0.7201337814331055,0.010995574295520782
1699090661651861000,5.147861083984375,-0.2854267954826355,0.8282569050788879,0.048258353024721146
1699090661661967000,5.157967041015625,-0.3068070709705353,0.8068766593933105,0.04764748737215996
1699090661671846000,5.167845947265625,-0.33857205510139465,0.7213554978370667,0.07391469180583954
1699090661681837000,5.177837158203125,-0.48456886410713196,0.7128033638000488,0.10934487730264664
1699090661691850000,5.18785009765625,-0.6189591884613037,0.8526915311813354,0.11667526513338089
1699090661701650000,5.19764990234375,-0.4931209683418274,1.1556806564331055,0.10751228034496307
1699090661711779000,5.207779052734375,-0.3446807265281677,1.4818826913833618,0.08185594528913498
1699090661721696000,5.217696044921875,-0.3171917796134949,1.3077861070632935,0.010995574295520782
1699090661731993000,5.2279931640625,-0.21212296187877655,0.7946593165397644,-0.029932396486401558
1699090661742039000,5.2380390625,-0.2102903574705124,0.5075526833534241,-0.0354301854968071
1699090661751878000,5.2478779296875,-0.47601673007011414,0.6199518442153931,0.019547687843441963
1699090661761823000,5.257822998046875,-0.7111998796463013,0.8166504502296448,0.21013765037059784
1699090661771853000,5.26785302734375,-0.7710646390914917,0.534430742263794,0.15821409225463867
1699090661781988000,5.277988037109375,-0.8993463516235352,0.6572146415710449,0.1973094791173935
1699090661792044000,5.2880439453125,-1.1186469793319702,0.6834818720817566,0.2718350291252136
1699090661802151000,5.29815087890625,-1.295186996459961,0.5869651436805725,0.30115658044815063
1699090661811843000,5.307843017578125,-1.3727669715881348,0.5026657581329346,0.28038713335990906
1699090661821824000,5.317823974609375,-1.36482572555542,0.5564218759536743,0.251676470041275
1699090661831989000,5.327989013671875,-1.2231049537658691,0.562530517578125,0.2064724564552307
1699090661842037000,5.338037109375,-0.956156849861145,0.5735260844230652,0.12278391420841217
1699090661851781000,5.347781005859375,-0.6928738951683044,0.6553820371627808,0.07147123664617538
1699090661861827000,5.3578271484375,-0.4784601926803589,0.74395751953125,0.0403171069920063
1699090661871854000,5.36785400390625,-0.29886582493782043,0.7103599309921265,-0.04398229718208313
1699090661881836000,5.3778359375,-0.18646661937236786,0.6737080216407776,-0.1417207419872284
1699090661892027000,5.38802685546875,-0.168751522898674,0.6156758069992065,-0.2119702398777008
1699090661901821000,5.397821044921875,-0.2756529450416565,0.6230061650276184,-0.22968533635139465
1699090661912021000,5.40802099609375,-0.351400226354599,0.6120105981826782,-0.24190263450145721
1699090661921816000,5.417816162109375,-0.2194533348083496,0.5643631219863892,-0.3396410644054413
1699090661931901000,5.42790087890625,0.0377209298312664,0.3847687542438507,-0.3836233615875244
1699090661942010000,5.438010009765625,0.24663683772087097,0.258930504322052,-0.42760565876960754
1699090661952145000,5.448144775390625,0.34315356612205505,0.35666894912719727,-0.5119050741195679
1699090661962711000,5.4587109375,0.4915938079357147,0.5552001595497131,-0.5601634383201599
1699090661971757000,5.467757080078125,0.7958046793937683,0.762894332408905,-0.5241223573684692
1699090661981772000,5.47777197265625,1.1378892660140991,0.94432133436203,-0.45753806829452515
1699090661992043000,5.48804296875,1.2484558820724487,0.9430995583534241,-0.38667771220207214
1699090662001979000,5.497978759765625,1.1207849979400635,0.7867180705070496,-0.3677408695220947
1699090662012126000,5.5081259765625,0.9033169746398926,0.5741369724273682,-0.3677408695220947
1699090662021793000,5.51779296875,0.7017314434051514,0.491670161485672,-0.3341432809829712
1699090662031944000,5.52794384765625,0.5685628056526184,0.5411502718925476,-0.3029891550540924
1699090662042023000,5.53802294921875,0.5258022546768188,0.6236170530319214,-0.28649580478668213
1699090662051868000,5.547867919921875,0.5129740834236145,0.7158576846122742,-0.26939156651496887
1699090662061985000,5.557985107421875,0.4781547784805298,0.8245916962623596,-0.24373523890972137
1699090662071657000,5.567656982421875,0.42378777265548706,0.9394344091415405,-0.17104226350784302
1699090662081989000,5.577989013671875,0.3352122902870178,1.1312460899353027,0.015882495790719986
1699090662091918000,5.58791796875,0.3455969989299774,1.1569024324417114,0.04764748737215996
1699090662101925000,5.597925048828125,0.32971450686454773,1.2027173042297363,0.08979719132184982
1699090662112020000,5.60802001953125,0.265573650598526,1.2069933414459229,0.13316862285137177
1699090662121847000,5.617846923828125,0.17760907113552094,1.2259302139282227,0.1472185254096985
1699090662131988000,5.627988037109375,0.11163562536239624,1.2961796522140503,0.16004669666290283
1699090662141828000,5.637828125,0.1134682223200798,1.3438271284103394,0.15515977144241333
1699090662151961000,5.647961181640625,0.1537853181362152,1.3505467176437378,0.14844025671482086
1699090662162769000,5.658768798828125,0.1586722433567047,1.3285555839538574,0.14294247329235077
1699090662171825000,5.667824951171875,0.07009678333997726,1.174006700515747,0.10873401165008545
1699090662181970000,5.677969970703125,0.017562376335263252,0.9211084246635437,0.04886921867728233
1699090662191825000,5.687824951171875,0.04505131021142006,0.8581892848014832,0.04642575979232788
1699090662202034000,5.698033935546875,0.07131851464509964,0.9357692003250122,0.10018189996480942
1699090662212028000,5.70802783203125,0.05421429127454758,1.021901249885559,0.15393804013729095
1699090662221727000,5.71772705078125,0.0010690141934901476,1.0689377784729004,0.16737708449363708
1699090662231904000,5.727904052734375,-0.04108068719506264,1.0542770624160767,0.12889257073402405
1699090662242055000,5.738054931640625,-0.04230241850018501,1.0903180837631226,0.07880161702632904
1699090662252038000,5.748037841796875,0.001679879380390048,1.1275808811187744,0.056810468435287476
1699090662262017000,5.75801708984375,0.012675453908741474,1.1257482767105103,0.02076941914856434
1699090662271771000,5.76777099609375,-0.024587325751781464,1.0878746509552002,-0.03726277872920036
1699090662281898000,5.77789794921875,-0.08078692853450775,1.1190288066864014,-0.06352998316287994
1699090662292000000,5.788,-0.14309518039226532,1.1550698280334473,-0.0507018156349659
1699090662301985000,5.797985107421875,-0.13271047174930573,1.123304843902588,-0.036651913076639175
1699090662311872000,5.8078720703125,-0.07895433157682419,1.0952050685882568,-0.015882495790719986
1699090662321798000,5.8177978515625,-0.03497203439474106,1.0890964269638062,0.01771509274840355
1699090662331742000,5.827741943359375,-0.017867809161543846,1.0591639280319214,0.025045474991202354
1699090662341794000,5.8377939453125,-0.027030786499381065,0.9760863184928894,0.006108652334660292
1699090662352313000,5.84831298828125,-0.047189339995384216,0.896062970161438,-0.02626720629632473
1699090662361878000,5.8578779296875,-0.06979135423898697,0.9229410290718079,-0.04764748737215996
1699090662371883000,5.867883056640625,-0.08811730891466141,1.020068645477295,-0.04703662544488907
1699090662381863000,5.87786279296875,-0.036193765699863434,1.0487792491912842,-0.09834930300712585
1699090662392008000,5.888008056640625,0.016951510682702065,1.0243446826934814,-0.11545353382825851
1699090662402387000,5.898386962890625,0.06520986557006836,1.0713813304901123,-0.1258382350206375
1699090662411779000,5.907779052734375,0.10002918541431427,1.094594120979309,-0.152105450630188
1699090662421781000,5.917781005859375,0.12263119965791702,1.0835986137390137,-0.19364428520202637
1699090662431870000,5.927869873046875,0.12629638612270355,1.077489972114563,-0.2278527319431305
1699090662441895000,5.93789501953125,0.10797043144702911,1.075046420097351,-0.24373523890972137
1699090662451734000,5.947734130859375,0.09392052888870239,1.1049789190292358,-0.2174680233001709
1699090662461894000,5.957893798828125,0.10186178237199783,1.1520154476165771,-0.18997909128665924
1699090662471729000,5.96772900390625,0.12079860270023346,1.1636219024658203,-0.1869247704744339
1699090662481858000,5.977858154296875,0.13301590085029602,1.1440742015838623,-0.19975294172763824
1699090662491951000,5.987951171875,0.12629638612270355,1.1269700527191162,-0.22296582162380219
1699090662501832000,5.99783203125,0.10308351367712021,1.1269700527191162,-0.24862214922904968
1699090662511943000,6.00794287109375,0.0731511116027832,1.1300243139266968,-0.28527405858039856
1699090662521941000,6.01794091796875,0.04077525436878204,1.1147527694702148,-0.33475416898727417
1699090662531906000,6.027906005859375,-0.00015271631127689034,1.076268196105957,-0.3799581825733185
1699090662541941000,6.03794091796875,-0.033139441162347794,0.9962448477745056,-0.3982841372489929
1699090662551849000,6.047848876953125,-0.050243668258190155,1.0041861534118652,-0.32620203495025635
1699090662561949000,6.057948974609375,-0.04841107130050659,1.1361329555511475,-0.2889392673969269
1699090662571933000,6.067932861328125,-0.05207626149058342,1.123915672302246,-0.33108896017074585
1699090662581885000,6.077885009765625,-0.035582900047302246,1.0909289121627808,-0.34513887763023376
1699090662591935000,6.08793505859375,-0.023365596309304237,1.0787116289138794,-0.3188716471195221
1699090662601780000,6.097780029296875,-0.055741455405950546,1.1190288066864014,-0.3170390725135803
1699090662611923000,6.1079228515625,-0.11621711403131485,1.020068645477295,-0.44837507605552673
1699090662622261000,6.118260986328125,-0.30375275015830994,0.715246856212616,-0.5497786998748779
1699090662631887000,6.12788720703125,-0.3929390609264374,0.9070585370063782,-0.2968805134296417
1699090662642017000,6.13801708984375,-0.25732699036598206,1.3841443061828613,-0.14049901068210602
1699090662651797000,6.147796875,-0.02580905705690384,1.1703414916992188,-0.47219884395599365
1699090662661973000,6.157972900390625,0.15683965384960175,0.9687559008598328,-0.513737678527832
1699090662671949000,6.167948974609375,0.14095716178417206,1.4177418947219849,-0.14416420459747314
1699090662681774000,6.177774169921875,-0.0019853119738399982,1.740278720855713,0.012217304669320583
1699090662692057000,6.18805712890625,-0.15225815773010254,1.2008846998214722,-0.34025195240974426
1699090662701810000,6.197809814453125,-0.15103642642498016,1.1171962022781372,-0.47342056035995483
1699090662712029000,6.20802880859375,-0.18524488806724548,1.150182843208313,-0.44287729263305664
1699090662721950000,6.217949951171875,-0.20234911143779755,1.3041208982467651,-0.3243694305419922
1699090662731917000,6.2279169921875,-0.17241671681404114,1.3810899257659912,-0.2681698501110077
1699090662741976000,6.23797607421875,-0.08384125679731369,1.3102295398712158,-0.304210901260376
1699090662751945000,6.247945068359375,-0.047189339995384216,1.321835994720459,-0.3481931984424591
1699090662761909000,6.257908935546875,-0.07712173461914062,1.331609845161438,-0.36651915311813354
1699090662772026000,6.268026123046875,-0.11438451707363129,1.3090078830718994,-0.35552358627319336
1699090662781741000,6.277740966796875,-0.13515393435955048,1.31206214427948,-0.33475416898727417
1699090662792108000,6.28810791015625,-0.1595885455608368,1.2638038396835327,-0.3384193480014801
1699090662801629000,6.29762890625,-0.18280142545700073,1.1770609617233276,-0.34636059403419495
1699090662811941000,6.307941162109375,-0.19196440279483795,1.1306352615356445,-0.3292563557624817
1699090662821872000,6.3178720703125,-0.17547103762626648,1.1837804317474365,-0.28649580478668213
1699090662831744000,6.327743896484375,-0.1547016203403473,1.1966086626052856,-0.2535090744495392
1699090662841963000,6.337962890625,-0.14798210561275482,1.1660653352737427,-0.24556782841682434
1699090662851654000,6.34765380859375,-0.14553864300251007,1.150182843208313,-0.2541199326515198
1699090662861815000,6.35781494140625,-0.13515393435955048,1.1165852546691895,-0.2681698501110077
1699090662871886000,6.367885986328125,-0.1137736514210701,1.0561096668243408,-0.28588494658470154
1699090662881814000,6.37781396484375,-0.09544769674539566,0.9950231313705444,-0.2840523421764374
1699090662891949000,6.387948974609375,-0.059406645596027374,0.8997281193733215,-0.27122417092323303
1699090662901643000,6.39764306640625,-0.01237002108246088,0.8026005625724792,-0.2840523421764374
1699090662911998000,6.407998046875,0.022449297830462456,0.7201337814331055,-0.33597588539123535
1699090662922014000,6.418013916015625,0.03833179548382759,0.6364452242851257,-0.3995058834552765
1699090662931929000,6.42792919921875,0.03222314268350601,0.5613088011741638,-0.4196644127368927
1699090662942005000,6.4380048828125,0.0010690141934901476,0.4867832362651825,-0.38179078698158264
1699090662951920000,6.447920166015625,-0.047800205647945404,0.45868343114852905,-0.30604347586631775
1699090662962020000,6.45802001953125,-0.10522153973579407,0.4751768112182617,-0.2174680233001709
1699090662971829000,6.4678291015625,-0.18585574626922607,0.4660138189792633,-0.15393804013729095
1699090662982021000,6.478021240234375,-0.27259862422943115,0.41347941756248474,-0.1417207419872284
1699090662992009000,6.488009033203125,-0.36422839760780334,0.4006512463092804,-0.1508837193250656
1699090663001927000,6.497927001953125,-0.45891252160072327,0.4195880591869354,-0.16554448008537292
1699090663012036000,6.5080361328125,-0.6440047025680542,0.3310126066207886,-0.23579397797584534
1699090663021974000,6.51797412109375,-0.7002043128013611,0.2851977050304413,-0.24678955972194672
1699090663032007000,6.5280068359375,-0.6953173875808716,0.2851977050304413,-0.23396138846874237
1699090663042029000,6.538029052734375,-0.6140722632408142,0.26137396693229675,-0.2168571650981903
1699090663051932000,6.547931884765625,-0.47540587186813354,0.23571762442588806,-0.1820378452539444
1699090663062017000,6.55801708984375,-0.3214678466320038,0.23632849752902985,-0.1264491081237793
1699090663071917000,6.5679169921875,-0.18157969415187836,0.22594378888607025,-0.07819075137376785
1699090663082014000,6.578013916015625,-0.06429356336593628,0.2033417671918869,-0.06169738993048668
1699090663091872000,6.5878720703125,0.010842857882380486,0.20517437160015106,-0.06658431142568588
1699090663101913000,6.5979130859375,0.03405573591589928,0.2338850349187851,-0.06902777403593063
1699090663112036000,6.6080361328125,0.016340645030140877,0.2485457956790924,-0.07269296050071716
1699090663121920000,6.617919921875,-0.03375030308961868,0.24732406437397003,-0.08002334833145142
1699090663132025000,6.628025146484375,-0.07712173461914062,0.2595413625240326,-0.08552113175392151
1699090663142009000,6.638009033203125,-0.10522153973579407,0.3084105849266052,-0.07635815441608429
1699090663151922000,6.647921875,-0.14553864300251007,0.3249039649963379,-0.0555887371301651
1699090663161954000,6.6579541015625,-0.16203200817108154,0.31085404753685,-0.04398229718208313
1699090663171938000,6.66793798828125,-0.17547103762626648,0.3310126066207886,-0.03848451003432274
1699090663181847000,6.677846923828125,-0.1895209401845932,0.3652210533618927,-0.039706241339445114
1699090663191797000,6.687796875,-0.1950187236070633,0.3859904706478119,-0.04214970022439957
1699090663201895000,6.69789501953125,-0.1846340149641037,0.3756057620048523,-0.0507018156349659
1699090663212044000,6.7080439453125,-0.18524488806724548,0.32123875617980957,-0.06352998316287994
1699090663221850000,6.71785009765625,-0.18707747757434845,0.24121540784835815,-0.07757988572120667
1699090663231936000,6.72793603515625,-0.18829920887947083,0.19967657327651978,-0.06719517707824707
1699090663241903000,6.737903076171875,-0.19379699230194092,0.15141822397708893,-0.04886921867728233
1699090663251755000,6.747755126953125,-0.18829920887947083,0.07750352472066879,-0.04214970022439957
1699090663261865000,6.757864990234375,-0.1693623960018158,0.059177570044994354,-0.02932153269648552
1699090663271677000,6.767677001953125,-0.1437060534954071,0.0921642929315567,-0.009162978269159794
1699090663281687000,6.77768701171875,-0.13087788224220276,0.09827294945716858,-0.007941247895359993
1699090663291766000,6.78776611328125,-0.13271047174930573,0.0921642929315567,-0.04092797264456749
1699090663301625000,6.797625,-0.15347988903522491,0.10987938940525055,-0.08002334833145142
1699090663311866000,6.8078662109375,-0.1797471046447754,0.13675746321678162,-0.11178833991289139
1699090663321779000,6.817779052734375,-0.168751522898674,0.18135061860084534,-0.14538592100143433
1699090663331830000,6.827830078125,-0.13148874044418335,0.22960896790027618,-0.15332718193531036
1699090663341893000,6.83789306640625,-0.08445212244987488,0.27298039197921753,-0.16798794269561768
1699090663351888000,6.847887939453125,-0.04841107130050659,0.28214338421821594,-0.18448130786418915
1699090663361862000,6.85786181640625,-0.029474247246980667,0.2699260711669922,-0.19425514340400696
1699090663371894000,6.86789404296875,-0.012980886735022068,0.26565003395080566,-0.19303341209888458
1699090663381656000,6.877656005859375,0.008399397134780884,0.2754238545894623,-0.1716531366109848
1699090663391846000,6.887845947265625,0.03527746722102165,0.27236953377723694,-0.13439035415649414
1699090663401793000,6.89779296875,0.06276640295982361,0.26198482513427734,-0.08796459436416626
1699090663411977000,6.90797705078125,0.09025534242391586,0.2540435791015625,-0.03848451003432274
1699090663421861000,6.917861083984375,0.12263119965791702,0.25221097469329834,0.004886921960860491
1699090663431817000,6.92781689453125,0.16294831037521362,0.23571762442588806,0.03298672288656235
1699090663441927000,6.937927001953125,0.20326541364192963,0.23021984100341797,0.039706241339445114
1699090663451912000,6.947911865234375,0.24174992740154266,0.24976752698421478,0.03787364438176155
1699090663461927000,6.957927001953125,0.2643519341945648,0.22960896790027618,0.01038470957428217
1699090663471771000,6.96777099609375,0.2698497176170349,0.12881620228290558,-0.021991148591041565
1699090663481879000,6.977879150390625,0.2606867551803589,0.03474296256899834,-0.0403171069920063
1699090663492051000,6.988051025390625,0.2301434874534607,-0.004963280167430639,-0.05619960278272629
1699090663501895000,6.99789501953125,0.1843285858631134,-0.0342848114669323,-0.05864306539297104
1699090663512037000,7.008037109375,0.13301590085029602,-0.04833471402525902,-0.04886921867728233
1699090663522058000,7.01805810546875,0.08720101416110992,-0.025121834129095078,-0.04886921867728233
1699090663531896000,7.02789599609375,0.052381694316864014,0.02191479131579399,-0.06902777403593063
1699090663542062000,7.03806201171875,0.03649919852614403,0.06895141303539276,-0.10323622822761536
1699090663551935000,7.04793505859375,0.043218716979026794,0.11537717282772064,-0.13500121235847473
1699090663562068000,7.05806787109375,0.06948592513799667,0.16607898473739624,-0.1563815027475357
1699090663572050000,7.0680498046875,0.10308351367712021,0.20578522980213165,-0.16065755486488342
1699090663581758000,7.077758056640625,0.13301590085029602,0.21433734893798828,-0.15332718193531036
1699090663592042000,7.0880419921875,0.14584407210350037,0.1776854246854782,-0.14049901068210602
1699090663601973000,7.097972900390625,0.13484850525856018,0.14653129875659943,-0.11728613078594208
1699090663611931000,7.107930908203125,0.11041389405727386,0.14103351533412933,-0.08491026610136032
1699090663621858000,7.117858154296875,0.09697485715150833,0.11904236674308777,-0.05619960278272629
1699090663631799000,7.127799072265625,0.12446379661560059,0.0316886343061924,-0.04764748737215996
1699090663641855000,7.13785498046875,0.14278975129127502,0.006643159314990044,-0.05192354694008827
1699090663651763000,7.147762939453125,0.16111570596694946,-0.00862847175449133,-0.045204028487205505
1699090663661831000,7.157830810546875,0.18127426505088806,-0.01412625890225172,-0.02687807008624077
1699090663671839000,7.1678388671875,0.2050980031490326,-0.008017606101930141,-0.0006108652451075613
1699090663681786000,7.1777861328125,0.22342395782470703,0.0017562375869601965,0.016493361443281174
1699090663691866000,7.1878662109375,0.235030397772789,0.007254024967551231,0.014049900695681572
1699090663701946000,7.197946044921875,0.24419337511062622,-0.004352414980530739,-0.013439035043120384
1699090663711778000,7.207778076171875,0.24663683772087097,-0.031841352581977844,-0.056810468435287476
1699090663721970000,7.217969970703125,0.24297164380550385,-0.06177374720573425,-0.09468411654233932
1699090663731818000,7.22781787109375,0.23197607696056366,-0.06666067242622375,-0.10812314599752426
1699090663741945000,7.237945068359375,0.2142609804868698,-0.041004329919815063,-0.09346238523721695
1699090663752233000,7.24823291015625,0.18860463798046112,-0.011682798154652119,-0.06475171446800232
1699090663761673000,7.2576728515625,0.15256360173225403,0.0005345070967450738,-0.03787364438176155
1699090663771940000,7.267940185546875,0.1134682223200798,-0.016569720581173897,-0.02321287989616394
1699090663781873000,7.277872802734375,0.0884227454662323,-0.055665094405412674,-0.015882495790719986
1699090663792584000,7.288583984375,0.07192938029766083,-0.10392344743013382,-0.01038470957428217
1699090663801941000,7.29794091796875,0.06765332818031311,-0.12774719297885895,-0.014049900695681572
1699090663811797000,7.307796875,0.07376197725534439,-0.12041681259870529,-0.01466076634824276
1699090663821949000,7.317948974609375,0.08292495459318161,-0.10819950699806213,0
1699090663831805000,7.327804931640625,0.08231408894062042,-0.10453431308269501,0.02015855349600315
1699090663841971000,7.337970947265625,0.07254024595022202,-0.0996473953127861,0.03848451003432274
1699090663851976000,7.347975830078125,0.07009678333997726,-0.09659306704998016,0.05497787147760391
1699090663861836000,7.3578359375,0.07864890247583389,-0.09598220139741898,0.06475171446800232
1699090663871872000,7.3678720703125,0.08536841720342636,-0.09048441797494888,0.06841690838336945
1699090663881801000,7.377801025390625,0.0835358202457428,-0.07215845584869385,0.06230825558304787
1699090663891964000,7.3879638671875,0.07192938029766083,-0.04528038576245308,0.04153883829712868
1699090663902749000,7.3987490234375,0.046273041516542435,-0.020845776423811913,0.015271631069481373
1699090663911973000,7.40797314453125,0.016951510682702065,-0.004963280167430639,-0.009162978269159794
1699090663922016000,7.41801611328125,-0.006872233934700489,-0.002519819187000394,-0.03298672288656235
1699090663931700000,7.427699951171875,-0.013591751456260681,-0.006795875728130341,-0.045204028487205505
1699090663942049000,7.438049072265625,0.046273041516542435,-0.00985020212829113,-0.018325956538319588
1699090663951921000,7.4479208984375,0.09147707372903824,-0.040393464267253876,-0.0024434609804302454
1699090663961956000,7.4579560546875,0.12690725922584534,-0.09781479835510254,0
1699090663971944000,7.46794384765625,0.14034628868103027,-0.16806429624557495,-0.007941247895359993
1699090663981886000,7.477885986328125,0.13790282607078552,-0.22976168990135193,-0.012217304669320583
1699090663991905000,7.487905029296875,0.12018773704767227,-0.28962647914886475,-0.021380282938480377
1699090664002000000,7.497999755859375,0.08781187981367111,-0.34521523118019104,-0.039706241339445114
1699090664012079000,7.5080791015625,0.04749477282166481,-0.39469531178474426,-0.05009094998240471
1699090664022138000,7.51813818359375,0.013286318629980087,-0.43012550473213196,-0.04581489413976669
1699090664031735000,7.527735107421875,-0.014202617108821869,-0.4447862505912781,-0.036041051149368286
1699090664042121000,7.538120849609375,-0.03497203439474106,-0.45150578022003174,-0.036041051149368286
1699090664052035000,7.54803515625,-0.05451972410082817,-0.4429536461830139,-0.04703662544488907
1699090664061980000,7.55797998046875,-0.07528914511203766,-0.4429536461830139,-0.06841690838336945
1699090664071903000,7.567903076171875,-0.0936150997877121,-0.46189048886299133,-0.09529497474431992
1699090664081850000,7.57785009765625,-0.11133018881082535,-0.4722751975059509,-0.1007927656173706
1699090664091918000,7.58791796875,-0.13026700913906097,-0.4643339514732361,-0.06902777403593063
1699090664101977000,7.59797705078125,-0.15164729952812195,-0.4435645341873169,-0.029932396486401558
1699090664112035000,7.60803515625,-0.1638645976781845,-0.406912624835968,-0.012217304669320583
1699090664122782000,7.618781982421875,-0.15286903083324432,-0.3769802153110504,-0.01771509274840355
1699090664131976000,7.627975830078125,-0.12110403180122375,-0.35926511883735657,-0.0354301854968071
1699090664142068000,7.63806787109375,-0.07467827945947647,-0.3378848433494568,-0.03848451003432274
1699090664151822000,7.647822021484375,-0.027030786499381065,-0.3122285008430481,-0.025656340643763542
1699090664162023000,7.65802294921875,-0.0074830991216003895,-0.2706896662712097,-0.0354301854968071
1699090664172086000,7.6680859375,-0.018478672951459885,-0.21937698125839233,-0.059864792972803116
1699090664181736000,7.67773583984375,-0.04352414980530739,-0.14301882684230804,-0.0806342139840126
1699090664191702000,7.687701904296875,-0.06185010448098183,-0.00985020212829113,-0.10812314599752426
1699090664201882000,7.697882080078125,-0.07162395119667053,0.08910996466875076,-0.12278391420841217
1699090664211939000,7.70793896484375,-0.09239336848258972,0.08605564385652542,-0.10812314599752426
1699090664221840000,7.71783984375,-0.11804971098899841,0.050014592707157135,-0.0910189226269722
1699090664231811000,7.72781103515625,-0.14187344908714294,0.056123245507478714,-0.07269296050071716
1699090664241832000,7.73783203125,-0.16752979159355164,0.08422304689884186,-0.07024950534105301
1699090664251913000,7.747912841796875,-0.20784689486026764,0.02557998150587082,-0.13011430203914642
1699090664262040000,7.7580400390625,-0.22800545394420624,0.05062545835971832,-0.1466076523065567
1699090664272057000,7.76805712890625,-0.23716843128204346,0.09949467331171036,-0.16554448008537292
1699090664281918000,7.77791796875,-0.23228150606155396,0.14653129875659943,-0.1875356286764145
1699090664291755000,7.787755126953125,-0.22678372263908386,0.14530956745147705,-0.23579397797584534
1699090664301847000,7.797846923828125,-0.21700987219810486,0.11476630717515945,-0.30054569244384766
1699090664311789000,7.8077890625,-0.21273382008075714,0.10926852375268936,-0.3341432809829712
1699090664321857000,7.81785693359375,-0.22372940182685852,0.13003793358802795,-0.3188716471195221
1699090664331815000,7.82781494140625,-0.24083362519741058,0.15141822397708893,-0.29016098380088806
1699090664341937000,7.83793701171875,-0.24572055041790009,0.1624137908220291,-0.2742784917354584
1699090664351875000,7.847875,-0.22800545394420624,0.1825723499059677,-0.26511552929878235
1699090664361845000,7.857844970703125,-0.18768835067749023,0.208839550614357,-0.26450464129447937
1699090664372124000,7.8681240234375,-0.1443169116973877,0.19662225246429443,-0.2993239760398865
1699090664381832000,7.87783203125,-0.12110403180122375,0.13859005272388458,-0.3677408695220947
1699090664391925000,7.887925048828125,-0.11010845750570297,0.11965323239564896,-0.4202753007411957
1699090664401893000,7.89789306640625,-0.09300423413515091,0.16485725343227386,-0.4251621961593628
1699090664411892000,7.90789208984375,-0.05757404863834381,0.21678079664707184,-0.38667771220207214
1699090664421862000,7.91786181640625,-0.014202617108821869,0.2650391459465027,-0.3121521472930908
1699090664432512000,7.928511962890625,0.015118914656341076,0.2742021381855011,-0.21563543379306793
1699090664441846000,7.937845947265625,0.015118914656341076,0.22227859497070312,-0.1215621829032898
1699090664452007000,7.9480068359375,-0.01542434748262167,0.12637275457382202,-0.06169738993048668
1699090664461819000,7.95781884765625,-0.06062837690114975,0.0164170041680336,-0.05497787147760391
1699090664471787000,7.967787109375,-0.09544769674539566,-0.11736248433589935,-0.07757988572120667
1699090664481898000,7.97789794921875,-0.11560624837875366,-0.2554180324077606,-0.11423180252313614
1699090664491982000,7.987982177734375,-0.1443169116973877,-0.3470478057861328,-0.17287486791610718
1699090664501804000,7.997803955078125,-0.18035796284675598,-0.397138774394989,-0.2431243658065796
1699090664511802000,8.007802001953126,-0.20357084274291992,-0.41668644547462463,-0.2993239760398865
1699090664522085000,8.018085205078124,-0.21273382008075714,-0.3879757821559906,-0.313373863697052
1699090664531729000,8.02772900390625,-0.20601430535316467,-0.26946792006492615,-0.2834414839744568
1699090664542021000,8.038021240234375,-0.19379699230194092,-0.0898735523223877,-0.24984388053417206
1699090664551972000,8.04797216796875,-0.1742493063211441,0.058566704392433167,-0.2620611786842346
1699090664561972000,8.057971923828125,-0.09666942805051804,0.14530956745147705,-0.3481931984424591
1699090664572095000,8.068094970703125,-0.023365596309304237,0.11904236674308777,-0.38240164518356323
1699090664582643000,8.078642822265625,0.05054909735918045,0.047571130096912384,-0.4190535545349121
1699090664592250000,8.08825,0.10308351367712021,-0.04222606122493744,-0.45875978469848633
1699090664601991000,8.097990966796875,0.1385136991739273,-0.10758864134550095,-0.4599815309047699
1699090664611952000,8.1079521484375,0.16050484776496887,-0.11797334998846054,-0.4098905920982361
1699090664621848000,8.11784814453125,0.15256360173225403,-0.07521278411149979,-0.3378084897994995
1699090664632004000,8.128004150390625,0.10674870014190674,-0.00007635815563844517,-0.2718350291252136
1699090664642079000,8.138078857421876,0.05054909735918045,0.10621419548988342,-0.23090706765651703
1699090664651870000,8.147869873046876,0.007788531947880983,0.19662225246429443,-0.24068090319633484
1699090664661974000,8.15797412109375,-0.01725694350898266,0.20089830458164215,-0.2779437005519867
1699090664672899000,8.168899169921875,-0.020922135561704636,0.14408783614635468,-0.3072652220726013
1699090664682924000,8.178924072265625,0.0029016099870204926,0.09521862119436264,-0.3072652220726013
1699090664692568000,8.188568115234375,0.043218716979026794,0.07994698733091354,-0.2675589919090271
1699090664701864000,8.197864013671875,0.07070764899253845,0.09094256162643433,-0.21135938167572021
1699090664711888000,8.207887939453125,0.07009678333997726,0.08788824081420898,-0.16371189057826996
1699090664721854000,8.21785400390625,0.05054909735918045,0.055512379854917526,-0.12889257073402405
1699090664731801000,8.227801025390624,0.02733621932566166,0.03413209691643715,-0.0861319974064827
1699090664741854000,8.23785400390625,0.005345070734620094,0.021303925663232803,-0.04581489413976669
1699090664751822000,8.247822021484374,-0.016035212203860283,-0.020234910771250725,-0.03848451003432274
1699090664761801000,8.257801025390625,-0.02825251780450344,-0.09292787313461304,-0.06108652427792549
1699090664771869000,8.267868896484375,-0.018478672951459885,-0.1509600728750229,-0.08552113175392151
1699090664781786000,8.2777861328125,0.013286318629980087,-0.15890131890773773,-0.09957103431224823
1699090664791860000,8.28785986328125,0.052381694316864014,-0.13324497640132904,-0.10506882518529892
1699090664802052000,8.298052001953126,0.09086620807647705,-0.09659306704998016,-0.09773843735456467
1699090664812039000,8.308038818359375,0.12202033400535583,-0.05077817291021347,-0.07819075137376785
1699090664822069000,8.318069091796875,0.13240504264831543,-0.012293662875890732,-0.06169738993048668
1699090664832429000,8.328428955078126,0.11407908797264099,-0.011682798154652119,-0.05497787147760391
1699090664842332000,8.338331787109375,0.07925976812839508,-0.055665094405412674,-0.04764748737215996
1699090664852086000,8.3480859375,0.04444044828414917,-0.09537133574485779,-0.03481931984424591
1699090664862063000,8.35806298828125,0.013897184282541275,-0.11308643221855164,-0.036651913076639175
1699090664871709000,8.367708984375,-0.044745877385139465,-0.144851416349411,-0.059864792972803116
1699090664881664000,8.3776640625,-0.06673702597618103,-0.1454622894525528,-0.07696902006864548
1699090664891832000,8.38783203125,-0.0734565481543541,-0.11919508129358292,-0.04092797264456749
1699090664901937000,8.39793701171875,-0.06001751124858856,-0.09659306704998016,0.01038470957428217
1699090664911938000,8.40793798828125,-0.02519819140434265,-0.06482807546854019,0.04337143152952194
1699090664921957000,8.41795703125,0.020005837082862854,-0.043447788804769516,0.05619960278272629
1699090664932353000,8.42835302734375,0.06459899991750717,-0.017180584371089935,0.06719517707824707
1699090664941953000,8.437953125,0.10247264802455902,0.006643159314990044,0.05314527451992035
1699090664951974000,8.447973876953125,0.1281289905309677,-0.015347989276051521,0.00733038317412138
1699090664961952000,8.457951904296875,0.14523321390151978,-0.03978259861469269,-0.03726277872920036
1699090664972037000,8.468037109375,0.144622340798378,-0.04711298272013664,-0.05803219974040985
1699090664982596000,8.47859619140625,0.12751811742782593,-0.058108557015657425,-0.0555887371301651
1699090664992009000,8.488009033203125,0.1036943718791008,-0.07826711237430573,-0.029932396486401558
1699090665001931000,8.497930908203125,0.07559457421302795,-0.10697777569293976,0.025045474991202354
1699090665012034000,8.508033935546875,0.0529925599694252,-0.11797334998846054,0.09162978827953339
1699090665021956000,8.5179560546875,0.052381694316864014,-0.08193229883909225,0.13011430203914642
1699090665031863000,8.527863037109375,0.07376197725534439,-0.02695442922413349,0.1270599663257599
1699090665042073000,8.538072998046875,0.1134682223200798,-0.00007635815563844517,0.09773843735456467
1699090665051975000,8.547974853515624,0.14095716178417206,0.002367102773860097,0.0659734457731247
1699090665062038000,8.5580380859375,0.1385136991739273,0.032910365611314774,0.06169738993048668
1699090665072224000,8.56822412109375,0.11591167747974396,0.06895141303539276,0.07819075137376785
1699090665082349000,8.57834912109375,0.08781187981367111,0.017638733610510826,0.08185594528913498
1699090665092014000,8.58801416015625,0.060933809727430344,-0.09659306704998016,0.0806342139840126
1699090665102027000,8.598027099609375,0.04077525436878204,-0.16378824412822723,0.10018189996480942
1699090665111913000,8.607912841796875,0.03039054572582245,-0.16745343804359436,0.13255776464939117
1699090665122039000,8.6180390625,0.02367102913558483,-0.13935363292694092,0.1417207419872284
1699090665131993000,8.6279931640625,0.019394971430301666,-0.11369729042053223,0.10384709388017654
1699090665141845000,8.637844970703124,0.013897184282541275,-0.12102767825126648,0.04764748737215996
1699090665151901000,8.64790087890625,-0.0007635815418325365,-0.11247556656599045,0.028099801391363144
1699090665161793000,8.65779296875,-0.017867809161543846,-0.03550654277205467,0.05192354694008827
1699090665171754000,8.66775390625,-0.02519819140434265,0.03413209691643715,0.07819075137376785
1699090665182234000,8.678234130859375,-0.021532999351620674,-0.02695442922413349,0.06780604273080826
1699090665191789000,8.6877890625,-0.023365596309304237,-0.06177374720573425,0.05925392732024193
1699090665202032000,8.6980322265625,-0.03436116874217987,-0.07399105280637741,0.060475658625364304
1699090665212180000,8.708179931640625,-0.04902193695306778,-0.06238461285829544,0.054367005825042725
1699090665222055000,8.718054931640625,-0.05513058975338936,-0.06360634416341782,0.031154127791523933
1699090665232060000,8.728059814453125,-0.05207626149058342,-0.09109527617692947,0.005497787147760391
1699090665242164000,8.7381640625,-0.04963280260562897,-0.10942123830318451,-0.001832595793530345
1699090665252069000,8.748069091796875,-0.05390885844826698,-0.0947604700922966,0.006108652334660292
1699090665261781000,8.757781005859375,-0.06368270516395569,-0.06788240373134613,0.015882495790719986
1699090665271883000,8.767883056640626,-0.06734789162874222,-0.049556441605091095,0.015271631069481373
1699090665281700000,8.7777001953125,-0.05513058975338936,-0.05016730725765228,0.00733038317412138
1699090665291876000,8.7878759765625,-0.044135015457868576,-0.05749769136309624,0
1699090665302230000,8.79822998046875,-0.0429132841527462,-0.058108557015657425,-0.0024434609804302454
1699090665311639000,8.80763916015625,-0.050854530185461044,-0.04466952010989189,-0.0024434609804302454
1699090665321795000,8.817795166015625,-0.06123924255371094,-0.013515393249690533,-0.00427605677396059
1699090665331825000,8.827824951171875,-0.06062837690114975,0.01702786795794964,-0.00366519158706069
1699090665341845000,8.837844970703125,-0.055741455405950546,0.01947133056819439,0.0024434609804302454
1699090665351770000,8.84777001953125,-0.06001751124858856,0.0029779679607599974,0.015271631069481373
1699090665361923000,8.857923095703125,-0.07467827945947647,0.002367102773860097,0.04153883829712868
1699090665371955000,8.867954833984374,-0.09056077152490616,0.013973542489111423,0.07330382615327835
1699090665381977000,8.87797705078125,-0.09544769674539566,0.005421428941190243,0.0910189226269722
1699090665392176000,8.888176025390624,-0.08200865983963013,-0.01290452852845192,0.08857546001672745
1699090665401955000,8.897955078125,-0.058795779943466187,-0.028787024319171906,0.07024950534105301
1699090665411942000,8.90794189453125,-0.0429132841527462,-0.03061962127685547,0.04581489413976669
1699090665421804000,8.917803955078124,-0.035582900047302246,-0.011071932502090931,0.02626720629632473
1699090665431787000,8.927787109375,-0.026419922709465027,-0.011071932502090931,0.001832595793530345
1699090665441912000,8.937912109375,-0.014813481830060482,-0.04711298272013664,-0.02015855349600315
1699090665452013000,8.948012939453125,-0.014813481830060482,-0.05138903856277466,-0.005497787147760391
1699090665461908000,8.957907958984375,-0.014813481830060482,-0.00985020212829113,0.04092797264456749
1699090665471807000,8.967806884765626,-0.023976460099220276,0.02557998150587082,0.08796459436416626
1699090665481699000,8.977698974609375,-0.033139441162347794,0.04085161164402962,0.12095131725072861
1699090665491787000,8.987787109375,-0.039248090237379074,0.038408152759075165,0.12400564551353455
1699090665501805000,8.99780517578125,-0.035582900047302246,-0.020845776423811913,0.05925392732024193
1699090665511824000,9.007823974609375,-0.04108068719506264,-0.04466952010989189,0.006719517521560192
1699090665521915000,9.017914794921875,-0.05268712714314461,-0.041004329919815063,-0.0507018156349659
1699090665531974000,9.027973876953125,-0.0630718395113945,-0.08254316449165344,-0.10995574295520782
1699090665542542000,9.0385419921875,-0.08261952549219131,-0.1711186319589615,-0.1820378452539444
1699090665552235000,9.048235107421876,-0.09483683109283447,-0.20471622049808502,-0.2321287989616394
1699090665561885000,9.057885009765625,-0.10277807712554932,-0.16867516934871674,-0.24190263450145721
1699090665572085000,9.0680849609375,-0.1088867336511612,-0.10331258177757263,-0.23090706765651703
1699090665582018000,9.07801806640625,-0.11988230794668198,-0.03978259861469269,-0.22602014243602753
1699090665592055000,9.088054931640626,-0.1235474944114685,-0.002519819187000394,-0.24129177629947662
1699090665601949000,9.097948974609375,-0.11560624837875366,-0.00862847175449133,-0.2638937830924988
1699090665611884000,9.107884033203124,-0.09911288321018219,-0.06604980677366257,-0.27611109614372253
1699090665621809000,9.117808837890625,-0.08384125679731369,-0.12163854390382767,-0.2632829248905182
1699090665632029000,9.12802880859375,-0.07162395119667053,-0.07643451541662216,-0.21380282938480377
1699090665642066000,9.13806591796875,-0.053297992795705795,-0.0037415495608001947,-0.16554448008537292
1699090665652076000,9.148075927734375,-0.03375030308961868,-0.012293662875890732,-0.13439035415649414
1699090665662008000,9.158008056640625,-0.024587325751781464,-0.022067507728934288,-0.0959058403968811
1699090665672128000,9.1681279296875,-0.02519819140434265,-0.007406740915030241,-0.039706241339445114
1699090665682005000,9.1780048828125,-0.02519819140434265,0.0011453722836449742,0.0403171069920063
1699090665692073000,9.188072998046875,-0.023976460099220276,0.03352123126387596,0.152105450630188
1699090665702003000,9.1980029296875,-0.030085112899541855,0.1330922693014145,0.27550023794174194
1699090665711983000,9.207983154296874,-0.03130684420466423,0.21494820713996887,0.37201693654060364
1699090665722076000,9.218075927734375,-0.021532999351620674,0.19540052115917206,0.3481931984424591
1699090665732061000,9.22806103515625,-0.004428773187100887,0.12515102326869965,0.22418753802776337
1699090665742057000,9.238056884765625,0.02428189292550087,0.06406449526548386,0.11850785464048386
1699090665752047000,9.248047119140624,0.04505131021142006,0.05367978289723396,0.1007927656173706
1699090665761841000,9.2578408203125,0.057879481464624405,0.06223189830780029,0.15577064454555511
1699090665772136000,9.268135986328126,0.06704246252775192,0.03901901841163635,0.21380282938480377
1699090665782079000,9.278078857421875,0.06459899991750717,-0.00007635815563844517,0.22602014243602753
1699090665792040000,9.2880400390625,0.05726861581206322,0.0005345070967450738,0.2431243658065796
1699090665802071000,9.298071044921874,0.043218716979026794,0.015806138515472412,0.27977627515792847
1699090665812031000,9.308031005859375,0.03222314268350601,-0.011682798154652119,0.28588494658470154
1699090665822068000,9.31806787109375,0.020005837082862854,-0.032452214509248734,0.2974913716316223
1699090665832846000,9.32884619140625,0.0029016099870204926,-0.028787024319171906,0.28649580478668213
1699090665842033000,9.338032958984375,-0.006872233934700489,-0.01412625890225172,0.28466320037841797
1699090665852041000,9.348041015625,-0.006261368747800589,-0.01840231567621231,0.2932153046131134
1699090665862009000,9.358009033203125,-0.0074830991216003895,-0.031841352581977844,0.29565876722335815
1699090665872062000,9.36806201171875,-0.01542434748262167,-0.04466952010989189,0.2993239760398865
1699090665881946000,9.377946044921876,-0.03375030308961868,-0.055054228752851486,0.31459560990333557
1699090665892037000,9.388037109375,-0.06123924255371094,-0.052610769867897034,0.3384193480014801
1699090665902052000,9.398052001953126,-0.08628471940755844,-0.014737123623490334,0.36713001132011414
1699090665911740000,9.407739990234376,-0.09422596544027328,0.03474296256899834,0.38728857040405273
1699090665921976000,9.41797607421875,-0.08445212244987488,0.04512767121195793,0.37140607833862305
1699090665931799000,9.427799072265625,-0.056352317333221436,0.04940372705459595,0.3579670190811157
1699090665941914000,9.4379140625,-0.020922135561704636,0.06345362961292267,0.34086281061172485
1699090665951954000,9.447953857421876,0.016951510682702065,0.10499246418476105,0.32681289315223694
1699090665962383000,9.458383056640624,0.05604688450694084,0.15691600739955902,0.3170390725135803
1699090665971974000,9.467973876953126,0.08659014850854874,0.17157678306102753,0.29626965522766113
1699090665981889000,9.477888916015624,0.10735956579446793,0.1581377387046814,0.28527405858039856
1699090665991958000,9.4879580078125,0.11774427443742752,0.1636355221271515,0.303600013256073
1699090666002659000,9.4986591796875,0.11163562536239624,0.16974417865276337,0.31581732630729675
1699090666011847000,9.507846923828126,0.09208793938159943,0.18135061860084534,0.3335324227809906
1699090666022087000,9.5180869140625,0.07620543986558914,0.2192242592573166,0.36529740691185
1699090666031897000,9.52789697265625,0.08109235763549805,0.23755022883415222,0.3536909818649292
1699090666041963000,9.537962890625,0.1085812970995903,0.22288945317268372,0.30970868468284607
1699090666052097000,9.548096923828124,0.13668109476566315,0.1984548419713974,0.27488934993743896
1699090666061776000,9.55777587890625,0.14217889308929443,0.18012888729572296,0.2565633952617645
1699090666071896000,9.56789599609375,0.12079860270023346,0.16119205951690674,0.23335053026676178
1699090666081740000,9.577739990234376,0.08048149943351746,0.1428661048412323,0.19975294172763824
1699090666091818000,9.58781787109375,0.034666601568460464,0.15019649267196655,0.17898350954055786
1699090666102237000,9.59823681640625,-0.014202617108821869,0.16058120131492615,0.17104226350784302
1699090666111643000,9.607642822265625,-0.014202617108821869,0.15019649267196655,0.16493362188339233
1699090666121876000,9.6178759765625,0.011453723534941673,0.17524196207523346,0.20463985204696655
1699090666131885000,9.627885009765626,0.0328340083360672,0.17707456648349762,0.19425514340400696
1699090666141881000,9.637881103515625,0.05360342562198639,0.1734093725681305,0.17837265133857727
1699090666151883000,9.647883056640625,0.05360342562198639,0.17951802909374237,0.15515977144241333
1699090666162343000,9.658343017578124,0.034666601568460464,0.1929570585489273,0.1270599663257599
1699090666171882000,9.667882080078124,0.011453723534941673,0.2033417671918869,0.10018189996480942
1699090666181904000,9.67790380859375,-0.003817907767370343,0.21067215502262115,0.0910189226269722
1699090666191881000,9.687880859375,-0.011759156361222267,0.21494820713996887,0.09468411654233932
1699090666202018000,9.69801806640625,-0.013591751456260681,0.21128301322460175,0.08429940044879913
1699090666212070000,9.70806982421875,-0.012980886735022068,0.2137264758348465,0.07452555745840073
1699090666222055000,9.718054931640625,-0.014202617108821869,0.21983513236045837,0.059864792972803116
1699090666231846000,9.727845947265624,-0.022143865004181862,0.19234620034694672,0.024434609338641167
1699090666241781000,9.737781005859375,-0.02275473065674305,0.1734093725681305,0.02871066704392433
1699090666251836000,9.7478359375,-0.01970040425658226,0.19723311066627502,0.048258353024721146
1699090666261928000,9.757927978515625,-0.023365596309304237,0.19601137936115265,0.010995574295520782
1699090666271948000,9.767947998046875,-0.02825251780450344,0.19051359593868256,-0.004886921960860491
1699090666281987000,9.777987060546875,-0.03191770985722542,0.22655464708805084,-0.004886921960860491
1699090666291950000,9.7879501953125,-0.039248090237379074,0.25221097469329834,-0.036041051149368286
1699090666301887000,9.797886962890624,-0.04046982154250145,0.2436588704586029,-0.06902777403593063
1699090666311858000,9.80785791015625,-0.033139441162347794,0.23449589312076569,-0.0806342139840126
1699090666321967000,9.817967041015624,-0.021532999351620674,0.24488060176372528,-0.10384709388017654
1699090666332032000,9.828031982421875,-0.01237002108246088,0.2137264758348465,-0.16004669666290283
1699090666341918000,9.83791796875,-0.008704829961061478,0.15935947000980377,-0.18936823308467865
1699090666352002000,9.848001953125,-0.01664607785642147,0.11965323239564896,-0.20830504596233368
1699090666361951000,9.857950927734375,-0.03680463135242462,0.10499246418476105,-0.2278527319431305
1699090666372014000,9.86801416015625,-0.06673702597618103,0.11293371021747589,-0.22296582162380219
1699090666382021000,9.878021240234375,-0.09728029370307922,0.10377073287963867,-0.23945917189121246
1699090666391964000,9.8879638671875,-0.11743884533643723,0.08422304689884186,-0.27061331272125244
1699090666402034000,9.898033935546875,-0.1186605766415596,0.11843150109052658,-0.2736676335334778
1699090666411812000,9.90781201171875,-0.11194105446338654,0.14592044055461884,-0.2889392673969269
1699090666421868000,9.917867919921875,-0.098502017557621,0.12209668755531311,-0.3341432809829712
1699090666431678000,9.927677978515625,-0.06062837690114975,0.12209668755531311,-0.3488040566444397
1699090666441831000,9.937830810546876,-0.05207626149058342,0.08422304689884186,-0.3927863538265228
1699090666451870000,9.947869873046875,-0.04596760869026184,0.035353824496269226,-0.42760565876960754
1699090666461770000,9.95777001953125,-0.04108068719506264,-0.01290452852845192,-0.46792277693748474
1699090666471856000,9.967856201171875,-0.003817907767370343,-0.09414960443973541,-0.6597344875335693
1699090666482540000,9.9785400390625,0.19288070499897003,-0.10819950699806213,-0.8130616545677185
1699090666491812000,9.98781201171875,0.19532416760921478,0.026801712810993195,-0.5155702829360962
1699090666501883000,9.9978828125,0.052381694316864014,-0.17783814668655396,-0.6872233748435974
1699090666511985000,10.00798486328125,-0.038637228310108185,-0.07704538106918335,-0.6762278079986572
1699090666522024000,10.01802392578125,-0.06368270516395569,0.030466904863715172,-0.6524040699005127
1699090666532039000,10.028038818359375,-0.038637228310108185,-0.05138903856277466,-0.6811147332191467
1699090666542015000,10.038014892578126,0.016951510682702065,-0.13935363292694092,-0.7122688889503479
1699090666552001000,10.0480009765625,0.05360342562198639,-0.15645785629749298,-0.7373143434524536
1699090666561944000,10.057944091796875,0.05849034711718559,-0.10819950699806213,-0.7415903806686401
1699090666572018000,10.068017822265626,0.054825156927108765,-0.05871942266821861,-0.7525860071182251
1699090666582020000,10.07802001953125,0.05604688450694084,-0.0544433668255806,-0.750142514705658
1699090666592018000,10.088017822265625,0.05910121276974678,-0.032452214509248734,-0.7202101349830627
1699090666602009000,10.098009033203125,0.05360342562198639,0.026190847158432007,-0.6627888083457947
1699090666612122000,10.1081220703125,0.05115996301174164,0.08605564385652542,-0.5583308339118958
1699090666622872000,10.1188720703125,0.04993823543190956,0.08972083032131195,-0.45204028487205505
1699090666632081000,10.128080810546875,0.03894266113638878,0.04207334294915199,-0.35185837745666504
1699090666642117000,10.1381171875,0.022449297830462456,0.04879286140203476,-0.26633724570274353
1699090666652083000,10.1480830078125,0.004734205547720194,0.12026409804821014,-0.20097467303276062
1699090666661731000,10.15773095703125,-0.01664607785642147,0.21678079664707184,-0.14477506279945374
1699090666672081000,10.168080810546876,-0.04902193695306778,0.39271000027656555,-0.17898350954055786
1699090666682119000,10.178118896484374,-0.08445212244987488,0.4953353703022003,-0.13439035415649414
1699090666692223000,10.188222900390626,-0.0630718395113945,0.46845728158950806,0.02321287989616394
1699090666702862000,10.198862060546874,0.01817324012517929,0.4501313269138336,0.1869247704744339
1699090666712013000,10.208012939453125,0.09575312584638596,0.45746171474456787,0.24495697021484375
1699090666722035000,10.218034912109376,0.13607023656368256,0.30230194330215454,0.304210901260376
1699090666732033000,10.228032958984375,0.15256360173225403,0.22288945317268372,0.36102136969566345
1699090666742146000,10.23814599609375,0.12324206531047821,0.6168975234031677,0.40256020426750183
1699090666751919000,10.247919189453125,0.14645494520664215,0.49961140751838684,0.40133845806121826
1699090666762022000,10.25802197265625,0.2515237629413605,0.4623486399650574,0.5277875661849976
1699090666772123000,10.268122802734375,0.337044894695282,0.5472589135169983,0.6243042945861816
1699090666782060000,10.27806005859375,0.3223841190338135,0.45868343114852905,0.7159340381622314
1699090666792114000,10.288114013671875,0.23747386038303375,0.4067598879337311,0.8130616545677185
1699090666802921000,10.2989208984375,0.13484850525856018,0.48861584067344666,0.8313875794410706
1699090666812045000,10.308045166015624,0.060933809727430344,0.5112178325653076,0.8704829812049866
1699090666822074000,10.31807421875,0.05115996301174164,0.5784130096435547,0.9108000993728638
1699090666832359000,10.32835888671875,0.09208793938159943,0.6382778286933899,0.9346238374710083
1699090666842102000,10.33810205078125,0.17577648162841797,0.6865361928939819,0.9645562171936035
1699090666852076000,10.348075927734374,0.275958389043808,0.6804275512695312,0.9822713136672974
1699090666862073000,10.358072998046875,0.3455969989299774,0.6517168879508972,0.9657779335975647
1699090666872086000,10.3680859375,0.35781431198120117,0.6089562773704529,0.9193521738052368
1699090666882062000,10.37806201171875,0.33399057388305664,0.5332090258598328,0.9169087409973145
1699090666892090000,10.388090087890625,0.3052799105644226,0.6065128445625305,0.9627236127853394
1699090666901847000,10.397846923828125,0.27351492643356323,0.5887977480888367,1.0134254693984985
1699090666911800000,10.407800048828125,0.2692388594150543,0.5087743997573853,1.054964303970337
1699090666921788000,10.417787841796875,0.27290403842926025,0.5759695768356323,1.0592403411865234
1699090666932642000,10.42864208984375,0.25702154636383057,0.5649740099906921,1.0256427526474
1699090666941966000,10.437966064453125,0.2594650089740753,0.5124396085739136,1.0097602605819702
1699090666951949000,10.447948974609375,0.29306259751319885,0.4812854528427124,0.9456194043159485
1699090666961939000,10.45793896484375,0.3162754774093628,0.4269184470176697,0.9230173826217651
1699090666972017000,10.468016845703126,0.3315471112728119,0.48311805725097656,0.9376781582832336
1699090666982077000,10.478076904296875,0.31383201479911804,0.4018729627132416,0.9456194043159485
1699090666991942000,10.48794189453125,0.2900082767009735,0.3969860374927521,0.9651671051979065
1699090667002085000,10.498085205078125,0.26190847158432007,0.42325326800346375,0.9352346658706665
1699090667012066000,10.508066162109374,0.244804248213768,0.4318053722381592,0.8869763612747192
1699090667022136000,10.518135986328126,0.24174992740154266,0.420809805393219,0.827111542224884
1699090667031961000,10.527961181640626,0.235030397772789,0.38293614983558655,0.7525860071182251
1699090667041787000,10.537786865234375,0.22159136831760406,0.3859904706478119,0.7012733221054077
1699090667051931000,10.547930908203124,0.19593502581119537,0.3334560692310333,0.6322455406188965
1699090667061846000,10.557845947265625,0.17516560852527618,0.30779972672462463,0.5705481171607971
1699090667071819000,10.567819091796874,0.15561792254447937,0.2491566687822342,0.5442809462547302
1699090667081972000,10.577971923828125,0.14034628868103027,0.2235003262758255,0.5448917746543884
1699090667091978000,10.58797802734375,0.10247264802455902,0.208839550614357,0.5393940210342407
1699090667101850000,10.59785009765625,0.043218716979026794,0.14653129875659943,0.5229006409645081
1699090667111884000,10.607884033203124,-0.021532999351620674,0.10621419548988342,0.5314527750015259
1699090667122034000,10.618033935546874,-0.07528914511203766,0.10438159853219986,0.5125159621238708
1699090667132030000,10.628030029296875,-0.11010845750570297,0.09155342727899551,0.41172316670417786
1699090667141972000,10.637971923828125,-0.14798210561275482,0.056123245507478714,0.33108896017074585
1699090667152075000,10.648074951171875,-0.21639901399612427,0.04512767121195793,0.29077184200286865
1699090667161965000,10.657965087890625,-0.30925053358078003,0.04268420860171318,0.2681698501110077
1699090667172078000,10.668078125,-0.3966042697429657,0.09033169597387314,0.2565633952617645
1699090667181917000,10.6779169921875,-0.4173736870288849,0.0518471859395504,0.2272418737411499
1699090667191925000,10.687925048828125,-0.3978259861469269,0.061621032655239105,0.13988813757896423
1699090667202090000,10.698090087890625,-0.3868304193019867,0.1172097697854042,0.036041051149368286
1699090667211874000,10.7078740234375,-0.422871470451355,0.22288945317268372,-0.09224065393209457
1699090667222007000,10.718007080078126,-0.5102251768112183,0.06772968173027039,-0.22540926933288574
1699090667232026000,10.728026123046876,-0.5658139586448669,-0.1503492146730423,-0.3842342495918274
1699090667241996000,10.73799609375,-0.5975789427757263,-0.2016618847846985,-0.5937610268592834
1699090667251918000,10.74791796875,-0.6385068893432617,-0.3134502172470093,-0.8429940342903137
1699090667261941000,10.75794091796875,-0.6543893814086914,-0.3812562823295593,-1.0519099235534668
1699090667272002000,10.768001953125,-0.6293439269065857,-0.28412869572639465,-1.1844676733016968
1699090667282037000,10.778037109375,-0.5829181671142578,-0.24014639854431152,-1.3329079151153564
1699090667291851000,10.78785107421875,-0.483957976102829,-0.16317738592624664,-1.4880677461624146
1699090667301795000,10.797795166015625,-0.3165809214115143,0.31757357716560364,-1.4679092168807983
1699090667311700000,10.807699951171875,-0.06001751124858856,0.6926448345184326,-1.2052371501922607
1699090667321935000,10.81793505859375,0.21609358489513397,0.4360814392566681,-0.6921103000640869
1699090667331933000,10.827932861328126,0.498924195766449,0.26565003395080566,-0.2021963894367218
1699090667341962000,10.8379619140625,0.47082439064979553,0.8887325525283813,-0.304210901260376
1699090667351959000,10.847958984375,0.1598939746618271,0.2851977050304413,-0.6505714654922485
1699090667361953000,10.857953125,-0.19318613409996033,0.006032294128090143,-1.0122036933898926
1699090667371826000,10.867825927734375,-0.260992169380188,0.3597232699394226,-0.8491026759147644
1699090667381978000,10.87797802734375,-0.11743884533643723,0.08300131559371948,-0.8191702961921692
1699090667391835000,10.8878349609375,0.05360342562198639,-1.11795973777771,-1.0036516189575195
1699090667401957000,10.89795703125,0.11163562536239624,-1.4343879222869873,-1.1117748022079468
1699090667411962000,10.907962158203125,-0.0025961773935705423,-0.20288361608982086,-0.970054030418396
1699090667421969000,10.917968994140624,-0.04657847434282303,-0.1350775808095932,-0.9975429177284241
1699090667432289000,10.9282890625,0.15622878074645996,-0.8320748209953308,-1.035416603088379
1699090667441870000,10.9378701171875,0.2515237629413605,-0.5932264924049377,-1.0574077367782593
1699090667451952000,10.9479521484375,0.11041389405727386,-0.0996473953127861,-0.8808676600456238
1699090667461962000,10.9579619140625,-0.07773260027170181,0.10499246418476105,-0.7739662528038025
1699090667471808000,10.96780810546875,-0.10644327104091644,0.002367102773860097,-0.8313875794410706
1699090667481915000,10.977914794921874,0.01572977937757969,-0.13446670770645142,-0.8900306820869446
1699090667491689000,10.98768896484375,0.2612976133823395,-0.11308643221855164,-0.8735373020172119
1699090667501892000,10.99789208984375,0.48426342010498047,-0.11919508129358292,-0.9352346658706665
1699090667511953000,11.007952880859374,0.5325217843055725,-0.18944458663463593,-1.0403034687042236
1699090667521967000,11.017967041015625,0.39324450492858887,-0.3323870599269867,-1.188132882118225
1699090667531989000,11.027989013671874,0.23808473348617554,-0.20715968310832977,-1.2009611129760742
1699090667541767000,11.037766845703125,0.10919216275215149,0.19417878985404968,-0.9810495972633362
1699090667552012000,11.048011962890625,0.013286318629980087,0.2735912799835205,-0.7849618196487427
1699090667561950000,11.057949951171874,0.04993823543190956,0.15080735087394714,-0.6316346526145935
1699090667572000000,11.068,0.2912299931049347,0.40920335054397583,-0.5387831330299377
1699090667581803000,11.077802978515624,0.6015495657920837,0.9296605587005615,-0.38117989897727966
1699090667591842000,11.087842041015625,0.8281805515289307,1.2894601821899414,-0.18814650177955627
1699090667601867000,11.097866943359374,0.7762570381164551,1.029842495918274,-0.2626720666885376
1699090667611791000,11.107791015625,0.37430769205093384,0.4721224904060364,-0.4434881806373596
1699090667621723000,11.117722900390625,-0.013591751456260681,0.3310126066207886,-0.5088507533073425
1699090667631776000,11.12777587890625,-0.13271047174930573,0.4904484450817108,-0.4489859640598297
1699090667641777000,11.13777685546875,-0.07528914511203766,0.4977788031101227,-0.41722095012664795
1699090667651951000,11.147951171875,0.048105638474226,0.25160011649131775,-0.4948008358478546
1699090667661899000,11.15789892578125,0.18799377977848053,0.15202908217906952,-0.5406157374382019
1699090667671920000,11.167920166015625,0.2906191349029541,0.3694971203804016,-0.2932153046131134
1699090667681969000,11.177968994140626,0.2741257846355438,0.3554472029209137,-0.13866640627384186
1699090667691842000,11.187842041015625,0.2503020465373993,0.3084105849266052,-0.06475171446800232
1699090667701976000,11.19797607421875,0.19654589891433716,0.4354705512523651,-0.14294247329235077
1699090667711864000,11.207864013671875,0.13118331134319305,0.1886810064315796,-0.35246923565864563
1699090667721786000,11.2177861328125,0.14767667651176453,-0.35010215640068054,-0.4386012554168701
1699090667732004000,11.228004150390625,0.327271044254303,-0.8021424412727356,-0.15882496535778046
1699090667741822000,11.237822021484375,0.851393461227417,-1.0318278074264526,0.29077184200286865
1699090667751888000,11.247887939453125,1.1201741695404053,-1.2150872945785522,0.6829473376274109
1699090667761799000,11.257798828125,0.3828597962856293,-1.1430052518844604,1.3029755353927612
1699090667771902000,11.26790185546875,-0.3868304193019867,-0.29451340436935425,1.4031574726104736
1699090667781945000,11.277945068359376,-0.7392996549606323,0.1483639031648636,1.5265522003173828
1699090667792034000,11.288033935546874,-0.60429847240448,0.5405393838882446,1.5729780197143555
1699090667801957000,11.29795703125,-0.23900102078914642,0.7292967438697815,1.2803735733032227
1699090667811947000,11.307947021484376,0.15134187042713165,0.7500661611557007,1.3524556159973145
1699090667821907000,11.317906982421874,0.5514585971832275,0.9467647671699524,1.6273449659347534
1699090667831951000,11.327951171875,0.6101016402244568,0.5857434272766113,1.5668693780899048
1699090667841834000,11.337833984375,0.3828597962856293,-0.03856086730957031,1.2559388875961304
1699090667851908000,11.347908203125,0.07864890247583389,-0.16256651282310486,0.9566149711608887
1699090667861944000,11.357944091796876,-0.2249511331319809,-0.10881037265062332,0.7043276429176331
1699090667871900000,11.36789990234375,-0.5291619896888733,-0.10942123830318451,0.32131510972976685
1699090667881899000,11.37789892578125,-0.7124215960502625,-0.02451096847653389,0.0354301854968071
1699090667891906000,11.387906005859374,-0.707534670829773,0.27175867557525635,0.010995574295520782
1699090667901862000,11.39786181640625,-0.5713117122650146,0.5057200789451599,0.0507018156349659
1699090667912000000,11.408,-0.34162637591362,0.4861723780632019,0.11178833991289139
1699090667921866000,11.417865966796874,-0.08628471940755844,0.4061490297317505,0.19303341209888458
1699090667931998000,11.427998046875,0.12324206531047821,0.349338561296463,0.23335053026676178
1699090667941908000,11.437907958984376,0.27840182185173035,0.19234620034694672,0.242513507604599
1699090667952001000,11.4480009765625,0.3407101035118103,0.06284276396036148,0.2785545587539673
1699090667961936000,11.457935791015625,0.2900082767009735,0.05795583873987198,0.3830125033855438
1699090667972013000,11.468012939453125,0.14278975129127502,0.03107776865363121,0.47769662737846375
1699090667981895000,11.47789501953125,-0.07040221989154816,-0.016569720581173897,0.46731191873550415
1699090667991741000,11.487740966796874,-0.06612616032361984,0.31268665194511414,0.523511528968811
1699090668001909000,11.497908935546874,0.012064588256180286,0.36277759075164795,0.4392121136188507
1699090668011617000,11.507616943359375,0.10674870014190674,0.4263075888156891,0.37079519033432007
1699090668021718000,11.517718017578124,0.16233743727207184,0.359112411737442,0.26633724570274353
1699090668031820000,11.527820068359375,0.18127426505088806,0.15386168658733368,0.08002334833145142
1699090668041736000,11.53773583984375,0.17150041460990906,0.023747386410832405,-0.054367005825042725
1699090668051748000,11.547748046875,0.13668109476566315,-0.07215845584869385,-0.08979719132184982
1699090668062237000,11.55823681640625,0.08964447677135468,-0.18272507190704346,-0.1313360333442688
1699090668071807000,11.567806884765625,0.031001411378383636,-0.21265746653079987,-0.1814269721508026
1699090668081945000,11.577945068359375,-0.04596760869026184,-0.12041681259870529,-0.22602014243602753
1699090668091912000,11.587911865234375,-0.11560624837875366,-0.0019089538836851716,-0.26022860407829285
1699090668102075000,11.598074951171874,-0.13759739696979523,0.13125966489315033,-0.28955012559890747
1699090668112044000,11.6080439453125,-0.08994990587234497,0.2851977050304413,-0.3084869384765625
1699090668122045000,11.618044921875,0.005345070734620094,0.37316229939460754,-0.3323107063770294
1699090668132027000,11.62802685546875,0.10735956579446793,0.4214206635951996,-0.35063666105270386
1699090668141786000,11.6377861328125,0.19593502581119537,0.48922669887542725,-0.3591887652873993
1699090668151831000,11.6478310546875,0.2600758671760559,0.5209916830062866,-0.36102136969566345
1699090668161900000,11.657900146484375,0.2802344262599945,0.4421900808811188,-0.35552358627319336
1699090668171871000,11.66787109375,0.2594650089740753,0.3340669274330139,-0.34636059403419495
1699090668181963000,11.677962890625,0.20815233886241913,0.320627897977829,-0.3445279896259308
1699090668191653000,11.687653076171875,0.12690725922584534,0.3585015535354614,-0.3591887652873993
1699090668201981000,11.69798095703125,0.03527746722102165,0.368886262178421,-0.38728857040405273
1699090668211966000,11.707966064453124,-0.033139441162347794,0.3401755690574646,-0.4355469346046448
1699090668221938000,11.71793798828125,-0.07101308554410934,0.28214338421821594,-0.49357911944389343
1699090668231876000,11.7278759765625,-0.0887281745672226,0.2381610870361328,-0.5271766781806946
1699090668242379000,11.73837890625,-0.10033461451530457,0.23205243051052094,-0.5314527750015259
1699090668252816000,11.74881591796875,-0.11438451707363129,0.24182628095149994,-0.5283984541893005
1699090668262116000,11.7581162109375,-0.12293662875890732,0.24488060176372528,-0.5283984541893005
1699090668272121000,11.76812109375,-0.1235474944114685,0.24243713915348053,-0.5222898125648499
1699090668282034000,11.778033935546874,-0.11682797968387604,0.2534327208995819,-0.5125159621238708
1699090668291929000,11.78792919921875,-0.09728029370307922,0.3157409727573395,-0.49724429845809937
1699090668302025000,11.79802490234375,-0.08994990587234497,0.4709007441997528,-0.37690386176109314
1699090668312029000,11.80802880859375,-0.08261952549219131,0.3236822187900543,-0.39584067463874817
1699090668322014000,11.818013916015625,-0.058795779943466187,0.24488060176372528,-0.45814892649650574
1699090668332025000,11.828025146484375,-0.03741549700498581,0.30657798051834106,-0.484416127204895
1699090668341941000,11.83794091796875,-0.02519819140434265,0.3548363447189331,-0.5021312236785889
1699090668352016000,11.848015869140625,-0.029474247246980667,0.32734742760658264,-0.5314527750015259
1699090668362028000,11.858028076171875,-0.05757404863834381,0.27053695917129517,-0.5534439086914062
1699090668372006000,11.868005859375,-0.10461067408323288,0.28703030943870544,-0.5277875661849976
1699090668382025000,11.87802490234375,-0.15103642642498016,0.37682750821113586,-0.4795292317867279
1699090668391932000,11.887931884765624,-0.17730364203453064,0.4104250967502594,-0.44837507605552673
1699090668402003000,11.8980029296875,-0.18280142545700073,0.42386412620544434,-0.4245513379573822
1699090668412027000,11.90802685546875,-0.16142113506793976,0.47334420680999756,-0.4141666293144226
1699090668421994000,11.917993896484376,-0.13515393435955048,0.4715116024017334,-0.423329621553421
1699090668432015000,11.92801513671875,-0.1137736514210701,0.48250719904899597,-0.43615779280662537
1699090668442870000,11.9388701171875,-0.09483683109283447,0.5197699666023254,-0.46242499351501465
1699090668452276000,11.94827587890625,-0.0734565481543541,0.5277112126350403,-0.523511528968811
1699090668461803000,11.957802978515625,-0.05268712714314461,0.5191590785980225,-0.5815436840057373
1699090668471672000,11.967672119140625,-0.038637228310108185,0.5167156457901001,-0.618195652961731
1699090668481963000,11.977962890625,-0.03375030308961868,0.5552001595497131,-0.6395758986473083
1699090668491728000,11.987727783203125,-0.03436116874217987,0.6309474110603333,-0.636521577835083
1699090668501946000,11.997946044921875,-0.03375030308961868,0.6712645292282104,-0.6126978397369385
1699090668512011000,12.008010986328125,-0.026419922709465027,0.6566037535667419,-0.5791002511978149
1699090668522863000,12.018863037109375,-0.00015271631127689034,0.6425538659095764,-0.5613851547241211
1699090668532030000,12.028030029296875,0.04749477282166481,0.6077345609664917,-0.5418374538421631
1699090668541814000,12.03781396484375,0.10430523753166199,0.5619196891784668,-0.4813618063926697
1699090668552014000,12.04801416015625,0.1293507218360901,0.5716935396194458,-0.38728857040405273
1699090668562019000,12.05801904296875,0.10125091671943665,0.6645449995994568,-0.2932153046131134
1699090668572007000,12.0680068359375,0.03344487398862839,0.6767623424530029,-0.3023782968521118
1699090668582010000,12.078010009765626,-0.05513058975338936,0.5112178325653076,-0.37140607833862305
1699090668591933000,12.087932861328126,-0.11133018881082535,0.3963751792907715,-0.38179078698158264
1699090668602018000,12.09801806640625,-0.15775595605373383,0.36705365777015686,-0.37201693654060364
1699090668612021000,12.10802099609375,-0.14676037430763245,0.36766451597213745,-0.3445279896259308
1699090668621888000,12.117887939453125,-0.10644327104091644,0.4800637364387512,-0.32681289315223694
1699090668632016000,12.128015869140626,-0.06429356336593628,0.5014439821243286,-0.3194825351238251
1699090668641917000,12.1379169921875,-0.02275473065674305,0.4599051773548126,-0.3139847218990326
1699090668651899000,12.14789892578125,0.007177666760981083,0.4049273133277893,-0.3084869384765625
1699090668662009000,12.158009033203125,0.012675453908741474,0.30230194330215454,-0.3072652220726013
1699090668672010000,12.168010009765625,-0.0019853119738399982,0.20578522980213165,-0.3176499307155609
1699090668682028000,12.178028076171875,-0.033139441162347794,0.1636355221271515,-0.3237585723400116
1699090668691932000,12.187931884765625,-0.08445212244987488,0.16058120131492615,-0.32070425152778625
1699090668702009000,12.198009033203125,-0.1437060534954071,0.1978439837694168,-0.31031954288482666
1699090668712019000,12.20801904296875,-0.18585574626922607,0.23999367654323578,-0.2974913716316223
1699090668721832000,12.21783203125,-0.20357084274291992,0.23510676622390747,-0.29138273000717163
1699090668731821000,12.227821044921875,-0.19807305932044983,0.23021984100341797,-0.2889392673969269
1699090668741790000,12.2377900390625,-0.17302757501602173,0.2540435791015625,-0.3084869384765625
1699090668752136000,12.248135986328125,-0.12232576310634613,0.3090214431285858,-0.38117989897727966
1699090668761749000,12.2577490234375,-0.07223481684923172,0.3194061517715454,-0.4355469346046448
1699090668771776000,12.26777587890625,-0.027641652151942253,0.2851977050304413,-0.4300491213798523
1699090668781897000,12.27789697265625,0.020616702735424042,0.2937498390674591,-0.423329621553421
1699090668792006000,12.288005859375,0.054825156927108765,0.2754238545894623,-0.4294382631778717
1699090668801879000,12.297879150390624,0.08109235763549805,0.2583196461200714,-0.41111230850219727
1699090668811837000,12.3078369140625,0.10919216275215149,0.26137396693229675,-0.37201693654060364
1699090668821824000,12.317823974609375,0.1385136991739273,0.2803107798099518,-0.36102136969566345
1699090668832232000,12.32823193359375,0.16050484776496887,0.29191723465919495,-0.36102136969566345
1699090668842153000,12.338153076171874,0.17638733983039856,0.2888629138469696,-0.33719760179519653
1699090668852013000,12.348012939453126,0.1843285858631134,0.28641945123672485,-0.3127630054950714
1699090668862057000,12.358056884765626,0.17638733983039856,0.28214338421821594,-0.29626965522766113
1699090668871745000,12.3677451171875,0.15073099732398987,0.29802587628364563,-0.27611109614372253
1699090668881971000,12.377970947265625,0.12140946835279465,0.3383429944515228,-0.2528982162475586
1699090668891936000,12.38793603515625,0.10002918541431427,0.4165337383747101,-0.2681698501110077
1699090668901969000,12.397968994140625,0.09208793938159943,0.449520468711853,-0.28955012559890747
1699090668911985000,12.40798486328125,0.10980302840471268,0.46418121457099915,-0.2938261926174164
1699090668921886000,12.417885986328125,0.16783522069454193,0.3945426046848297,-0.21502456068992615
1699090668931916000,12.427916015625,0.18310685455799103,0.3334560692310333,-0.14416420459747314
1699090668942222000,12.43822216796875,0.19776763021945953,0.3059671223163605,-0.08429940044879913
1699090668951906000,12.447906005859375,0.2099849283695221,0.3041345477104187,-0.042760565876960754
1699090668961615000,12.457614990234376,0.20876319706439972,0.31146490573883057,-0.013439035043120384
1699090668971728000,12.467727783203125,0.19593502581119537,0.30657798051834106,0.01038470957428217
1699090668981755000,12.4777548828125,0.18310685455799103,0.29802587628364563,0.024434609338641167
1699090668991870000,12.487869873046876,0.16600263118743896,0.27847820520401,0.039095375686883926
1699090669001861000,12.497861083984375,0.13545936346054077,0.2534327208995819,0.05253441259264946
1699090669011776000,12.50777587890625,0.0988074541091919,0.2735912799835205,0.06475171446800232
1699090669021892000,12.51789208984375,0.06154467165470123,0.32795828580856323,0.08124507963657379
1699090669031767000,12.52776708984375,0.03222314268350601,0.33712124824523926,0.10812314599752426
1699090669041746000,12.537745849609376,0.0377209298312664,0.2845868468284607,0.13561208546161652
1699090669051788000,12.5477880859375,0.07437284290790558,0.25221097469329834,0.15515977144241333
1699090669061633000,12.557633056640626,0.1134682223200798,0.2699260711669922,0.1814269721508026
