time,seconds_elapsed,z,y,x
1699090656684216600,0.180216552734375,9.048885345458984,1.7956513166427612,-0.3471592366695404
1699090656694705700,0.19070556640625,9.095572471618652,1.8818424940109253,-0.48602294921875
1699090656704939300,0.200939208984375,9.35654067993164,1.9991583824157715,-0.5602431893348694
1699090656715151000,0.211151123046875,8.49941635131836,1.9476830959320068,-0.6919242739677429
1699090656725206000,0.2212060546875,8.552088737487793,1.900996208190918,-0.3998316824436188
1699090656735228200,0.231228271484375,9.885659217834473,1.8183962106704712,-0.11013327538967133
1699090656745190100,0.241190185546875,9.569623947143555,1.643619418144226,-0.17836803197860718
1699090656755226000,0.25122607421875,9.84495735168457,1.5753847360610962,-0.16519992053508759
1699090656765180400,0.261180419921875,10.589553833007812,1.5705963373184204,-0.17717093229293823
1699090656775175700,0.27117578125,11.105504989624023,1.4891934394836426,-0.23582886159420013
1699090656785177300,0.28117724609375,11.21204662322998,1.43532395362854,-0.2082955539226532
1699090656795206100,0.2912060546875,10.842142105102539,1.3479355573654175,-0.11013327538967133
1699090656805175000,0.301175048828125,10.141838073730469,1.1994950771331787,-0.12210428714752197
1699090656815153700,0.311153564453125,9.261969566345215,0.9600749015808105,-0.2585737705230713
1699090656825154800,0.32115478515625,8.395268440246582,0.7541735172271729,-0.4381389021873474
1699090656835145500,0.3311455078125,8.146271705627441,0.8583213090896606,0.21547815203666687
1699090656845237200,0.3412373046875,8.89685344696045,0.7769184708595276,-1.0594342947006226
1699090656855333000,0.3513330078125,8.639476776123047,0.6823474764823914,-0.8906430602073669
1699090656865189000,0.361189208984375,8.182184219360352,0.5758054852485657,-0.38546648621559143
1699090656875252500,0.37125244140625,8.274360656738281,0.6919242739677429,-0.03232172131538391
1699090656885186800,0.381186767578125,8.868123054504395,0.8403648138046265,-0.16160862147808075
1699090656895137800,0.3911376953125,9.206902503967285,0.9600749015808105,-0.02992752194404602
1699090656905112000,0.401112060546875,10.008959770202637,0.9540894031524658,-0.5554547905921936
1699090656915508500,0.411508544921875,10.018536567687988,0.6739677786827087,-0.43694180250167847
1699090656925302800,0.421302734375,9.172186851501465,0.45489832758903503,0.08379705995321274
1699090656935246300,0.431246337890625,8.191761016845703,0.5339069962501526,0.7469909191131592
1699090656945256200,0.441256103515625,7.407660007476807,0.6057330369949341,1.256955862045288
1699090656955224000,0.45122412109375,6.736086368560791,0.8391677141189575,2.2421698570251465
1699090656965177000,0.461177001953125,7.582436561584473,1.0283095836639404,1.9249382019042969
1699090656975235600,0.471235595703125,11.716026306152344,1.193509578704834,1.521515130996704
1699090656985130200,0.481130126953125,19.539079666137695,2.1595699787139893,4.511873245239258
1699090656995124200,0.491124267578125,17.14966583251953,1.6184803247451782,4.217386245727539
1699090657005098500,0.501098388671875,9.23563289642334,0.21787235140800476,1.6496049165725708
1699090657015277300,0.51127734375,8.124723434448242,0.1711854189634323,-0.09816227108240128
1699090657025238000,0.521238037109375,10.494982719421387,0.7601590156555176,-0.9493009448051453
1699090657035171600,0.531171630859375,12.574347496032715,0.6703764796257019,-0.689530074596405
1699090657045126000,0.5411259765625,10.278307914733887,-0.6308721303939819,-0.7637503147125244
1699090657055165000,0.5511650390625,8.489839553833008,-1.2246341705322266,0.3016694188117981
1699090657065241900,0.561241943359375,9.221267700195312,-0.6631938815116882,1.1408370733261108
1699090657075231000,0.57123095703125,8.585607528686523,0.395043283700943,2.8215668201446533
1699090657085173500,0.581173583984375,9.033323287963867,1.2437877655029297,3.37941575050354
1699090657095149300,0.5911494140625,9.367314338684082,1.4101848602294922,2.7760767936706543
1699090657105122000,0.6011220703125,9.095572471618652,1.5526398420333862,2.673126220703125
1699090657115147000,0.61114697265625,9.095572471618652,1.4484920501708984,1.746570110321045
1699090657125168600,0.621168701171875,9.97065258026123,1.5981296300888062,1.158793568611145
1699090657135185200,0.63118505859375,10.257957458496094,1.5741876363754272,1.4472949504852295
1699090657145126700,0.641126708984375,10.38604736328125,1.2952631711959839,1.2665326595306396
1699090657155171300,0.65117138671875,10.613495826721191,1.258152961730957,1.1982979774475098
1699090657165122000,0.6611220703125,10.307038307189941,1.2437877655029297,1.600523829460144
1699090657175118600,0.67111865234375,9.690531730651855,1.37906014919281,1.7130513191223145
1699090657185105400,0.68110546875,9.369708061218262,1.6376339197158813,1.6112977266311646
1699090657195088600,0.691088623046875,8.84058952331543,1.9764134883880615,1.643619418144226
1699090657205237200,0.7012373046875,8.684967041015625,2.2601263523101807,1.5705963373184204
1699090657215202000,0.7112021484375,8.412027359008789,2.4576480388641357,1.4401123523712158
1699090657225182200,0.72118212890625,8.87051773071289,2.3068132400512695,0.970848798751831
1699090657235170600,0.731170654296875,8.933963775634766,2.122459888458252,0.6835445761680603
1699090657245127700,0.741127685546875,9.042900085449219,2.169146776199341,0.4129997789859772
1699090657255166000,0.751166015625,9.658209800720215,2.2589292526245117,0.5722141861915588
1699090657265140500,0.761140380859375,10.152612686157227,2.3020248413085938,0.8152256608009338
1699090657275182800,0.771182861328125,10.415974617004395,2.3930046558380127,0.8140285611152649
1699090657285151000,0.78115087890625,10.283096313476562,2.2170307636260986,0.8343793153762817
1699090657295157500,0.791157470703125,9.981427192687988,2.250549554824829,0.17717093229293823
1699090657305129700,0.801129638671875,8.916007041931152,2.4420857429504395,-0.10893617570400238
1699090657315138300,0.81113818359375,8.583212852478027,2.7449522018432617,-0.5877765417098999
1699090657325171200,0.821171142578125,8.540117263793945,2.918531894683838,-0.8463503122329712
1699090657335171600,0.831171630859375,8.51258373260498,3.090914487838745,-0.5398924946784973
1699090657345116000,0.841115966796875,8.671798706054688,2.8143839836120605,-0.3663128614425659
1699090657355141400,0.851141357421875,8.771158218383789,2.6384103298187256,-0.36750996112823486
1699090657365144300,0.861144287109375,9.17577838897705,2.9005753993988037,-0.08499415963888168
1699090657375118000,0.8711181640625,9.378087997436523,2.889801502227783,-0.18555063009262085
1699090657385159200,0.8811591796875,9.408015251159668,2.9520506858825684,-0.05027823522686958
1699090657395179500,0.891179443359375,9.295488357543945,2.9460651874542236,-0.0071826050989329815
1699090657405154800,0.90115478515625,8.725667953491211,3.02986216545105,0.019153613597154617
1699090657415191300,0.91119140625,8.371326446533203,3.2321722507476807,-0.16519992053508759
1699090657425230600,0.921230712890625,8.20732307434082,3.4129345417022705,-0.49799394607543945
1699090657435458300,0.931458251953125,8.344989776611328,3.5027170181274414,-0.304063618183136
1699090657445370000,0.9413701171875,8.524555206298828,3.445256233215332,-0.07541735470294952
1699090657455319000,0.951319091796875,8.789113998413086,3.227383852005005,0.09457096457481384
1699090657465301500,0.961301513671875,8.89445972442627,3.3686418533325195,-0.05267243832349777
1699090657475271700,0.971271728515625,9.180566787719727,3.558980941772461,-0.12689268589019775
1699090657485278000,0.98127783203125,9.556455612182617,3.6942532062530518,-0.1604115068912506
1699090657495243500,0.991243408203125,10.102334022521973,3.733757495880127,0.20231004059314728
1699090657505271300,1.001271240234375,10.435128211975098,3.8522706031799316,-0.13527239859104156
1699090657515285500,1.011285400390625,10.919954299926758,4.022258758544922,-0.21428105235099792
1699090657525297000,1.021296875,10.469843864440918,4.278438568115234,-0.3064578175544739
1699090657535369000,1.031368896484375,10.023324966430664,4.334702014923096,-0.6727706789970398
1699090657545239600,1.041239501953125,9.97065258026123,3.9887399673461914,-0.6260837316513062
1699090657555214800,1.05121484375,9.421183586120605,3.998316764831543,0.2561795711517334
1699090657565223400,1.061223388671875,9.759963035583496,3.9013516902923584,0.5015852451324463
1699090657575200800,1.07120068359375,10.128670692443848,3.5637693405151367,0.304063618183136
1699090657585220900,1.081220947265625,10.526107788085938,3.6116533279418945,-0.14604631066322327
1699090657595227000,1.091226806640625,10.832565307617188,3.4967315196990967,-0.9720458984375
1699090657605246000,1.101245849609375,10.799046516418457,5.117606163024902,-1.3658920526504517
1699090657615265000,1.11126513671875,10.754754066467285,4.941632270812988,-1.4951789379119873
1699090657625281000,1.121281005859375,10.63504409790039,4.730942726135254,-0.6332663297653198
1699090657635370000,1.131369873046875,10.002974510192871,4.741716384887695,-0.1472434103488922
1699090657645297400,1.14129736328125,9.680954933166504,5.294776916503906,-0.3794809579849243
1699090657655280600,1.15128076171875,8.860940933227539,5.523423194885254,-1.3467384576797485
1699090657665280800,1.16128076171875,7.7428483963012695,5.225345134735107,-2.9053637981414795
1699090657675296000,1.1712958984375,7.133523941040039,5.521028995513916,-3.2980127334594727
1699090657685282600,1.181282470703125,6.551733016967773,6.560112476348877,-3.028665065765381
1699090657695287300,1.191287353515625,6.952761650085449,7.292738437652588,-1.7693150043487549
1699090657705281500,1.201281494140625,9.23323917388916,6.279991149902344,-2.0913352966308594
1699090657715388400,1.211388427734375,9.81024169921875,5.366602897644043,-2.054224967956543
1699090657725385200,1.22138525390625,9.277531623840332,5.925649166107178,-1.5933412313461304
1699090657735358000,1.23135791015625,8.65743350982666,6.344634532928467,-1.602918028831482
1699090657745332500,1.24133251953125,7.9176249504089355,6.0872578620910645,-2.0673930644989014
1699090657755377200,1.251377197265625,7.096413612365723,6.066906929016113,-2.410961151123047
1699090657765314000,1.26131396484375,6.811503887176514,5.765237808227539,-2.741360902786255
1699090657775483600,1.271483642578125,4.947618007659912,6.007051944732666,-2.3319525718688965
1699090657785614300,1.2816142578125,3.780444383621216,6.248866558074951,-2.7664999961853027
1699090657795530800,1.29153076171875,3.2094273567199707,6.9240312576293945,-3.1938650608062744
1699090657805417700,1.301417724609375,3.883395195007324,7.507019519805908,-3.156754970550537
1699090657815346400,1.311346435546875,4.153939723968506,7.951143741607666,-2.4157495498657227
1699090657825330200,1.321330078125,5.199008941650391,8.030152320861816,-1.9321208000183105
1699090657835309000,1.33130908203125,6.385335922241211,7.983465671539307,-1.5945383310317993
1699090657845369600,1.34136962890625,6.121973514556885,8.57004451751709,-1.4472949504852295
1699090657855388700,1.351388671875,5.582081317901611,8.71728801727295,-2.319981336593628
1699090657865331000,1.3613310546875,4.3610382080078125,9.023746490478516,-3.2597055435180664
1699090657875303400,1.371303466796875,3.1675288677215576,9.591172218322754,-3.6583402156829834
1699090657885220600,1.381220703125,2.45285964012146,9.93474006652832,-3.251325845718384
1699090657895319300,1.3913193359375,2.2864625453948975,10.250774383544922,-2.3235726356506348
1699090657905388300,1.40138818359375,1.3670891523361206,8.56765079498291,-1.5873557329177856
1699090657915384000,1.411384033203125,1.625662922859192,8.815450668334961,-1.2653355598449707
1699090657925352000,1.42135205078125,1.9393033981323242,9.6618013381958,-1.2102689743041992
1699090657935332000,1.43133203125,2.030282974243164,9.641449928283691,-2.1308395862579346
1699090657945310000,1.44131005859375,1.1216834783554077,8.955511093139648,-2.117671489715576
1699090657955287600,1.45128759765625,-0.11252748221158981,8.540117263793945,-2.191891670227051
1699090657965297200,1.461297119140625,-0.8930372595787048,8.875306129455566,-2.2469582557678223
1699090657975364000,1.471364013671875,-1.0307037830352783,8.598775863647461,-2.449268341064453
1699090657985325600,1.48132568359375,-1.923741102218628,7.927201747894287,-2.741360902786255
1699090657995338800,1.4913388671875,-1.7729063034057617,7.973888874053955,-2.2888567447662354
1699090658005422300,1.50142236328125,-1.6962919235229492,8.283937454223633,-1.6172832250595093
1699090658015332600,1.51133251953125,-1.4987702369689941,8.325836181640625,-1.236605167388916
1699090658025405400,1.521405517578125,-0.6189011335372925,8.14028549194336,-1.0426748991012573
1699090658035342000,1.531342041015625,-0.669179379940033,7.891288757324219,-1.193509578704834
1699090658045276200,1.541276123046875,-1.115697979927063,7.627926826477051,-1.013944387435913
1699090658055407000,1.551406982421875,-1.623268723487854,7.530961513519287,-0.788889467716217
1699090658065294600,1.561294677734375,-2.2445640563964844,7.157465934753418,-0.9756371974945068
1699090658075363300,1.57136328125,-2.6898856163024902,7.060500621795654,-1.238999366760254
1699090658085621500,1.58162158203125,-2.074575662612915,7.156269073486328,-1.646013617515564
1699090658095475200,1.59147509765625,-2.612074136734009,7.700949668884277,-0.3196259140968323
1699090658105454000,1.6014541015625,-1.6304513216018677,7.649474620819092,-0.008379706181585789
1699090658115442200,1.611442138671875,-1.6208745241165161,7.592013359069824,-0.02992752194404602
1699090658125436400,1.6214365234375,-1.5933412313461304,7.530961513519287,-0.2214636504650116
1699090658135411200,1.6314111328125,-2.2026655673980713,8.329427719116211,-0.06584054976701736
1699090658145420000,1.641419921875,-2.715024709701538,8.577227592468262,0.24779987335205078
1699090658155434000,1.65143408203125,-3.70742130279541,7.879317760467529,-0.37229835987091064
1699090658165435600,1.661435546875,-4.203021049499512,6.852205276489258,-1.1085153818130493
1699090658175458800,1.671458740234375,-4.4975080490112305,7.236474514007568,-0.7972691655158997
1699090658185824300,1.68182421875,-4.188655853271484,8.027758598327637,-0.3196259140968323
1699090658195649300,1.691649169921875,-2.346317768096924,6.268020153045654,-1.5155296325683594
1699090658205556000,1.701555908203125,-2.0901381969451904,7.453149795532227,-0.5147533416748047
1699090658215539000,1.7115390625,-2.9927520751953125,8.26478385925293,-2.2182278633117676
1699090658225502500,1.72150244140625,-4.349067211151123,10.11430549621582,-0.7613561153411865
1699090658235426300,1.73142626953125,-4.392162799835205,9.264363288879395,-1.4736311435699463
1699090658245297200,1.741297119140625,-4.514267444610596,8.26358699798584,-1.0797849893569946
1699090658255247000,1.7512470703125,-4.092887878417969,7.437587738037109,-1.139639973640442
1699090658265210600,1.761210693359375,-3.1088709831237793,6.540958881378174,-1.4472949504852295
1699090658275311400,1.771311279296875,-3.5278561115264893,6.884527206420898,-0.4908113479614258
1699090658285312300,1.781312255859375,-3.163937568664551,7.648277282714844,-0.11372458189725876
1699090658295356700,1.791356689453125,-4.262876033782959,7.952341079711914,-0.8212111592292786
1699090658305335800,1.801335693359375,-5.0876784324646,7.936778545379639,-1.5071499347686768
1699090658315250400,1.81125048828125,-4.492719650268555,8.078036308288574,-1.403002142906189
1699090658325282300,1.8212822265625,-2.741360902786255,8.966285705566406,-0.15921440720558167
1699090658335357200,1.831357177734375,-2.5270798206329346,9.48343276977539,1.1516109704971313
1699090658345311000,1.84131103515625,-1.9189527034759521,9.030928611755371,1.5658079385757446
1699090658355318000,1.851318115234375,-1.5143325328826904,7.9451584815979,2.4229321479797363
1699090658365256400,1.86125634765625,-2.7545289993286133,5.95677375793457,1.922544002532959
1699090658375296800,1.871296875,-2.9879636764526367,3.359065055847168,0.20709845423698425
1699090658385229300,1.881229248046875,-2.9053637981414795,2.8131868839263916,0.7757213711738586
1699090658395326700,1.89132666015625,-2.832340717315674,3.91092848777771,3.6559460163116455
1699090658405342700,1.9013427734375,-3.7493197917938232,5.407304763793945,6.457161903381348
1699090658415523300,1.9115234375,-3.204638957977295,6.1949968338012695,9.611522674560547
1699090658425443300,1.921443359375,-1.987187385559082,6.703764915466309,11.9027738571167
1699090658435423500,1.931423583984375,-2.4145524501800537,6.795941352844238,13.358448028564453
1699090658445287400,1.941287353515625,-4.99550199508667,7.090428352355957,15.106215476989746
1699090658455369200,1.951369140625,-4.564545631408691,7.715314865112305,13.375207901000977
1699090658465706000,1.9617060546875,-5.146336555480957,7.479485988616943,11.33654499053955
1699090658475521500,1.971521484375,-7.150283336639404,7.8781208992004395,10.395624160766602
1699090658485407700,1.98140771484375,-8.119935035705566,8.44195556640625,9.877279281616211
1699090658495313400,1.9913134765625,-7.092822551727295,8.462306022644043,9.141061782836914
1699090658505197300,2.001197265625,-5.790376663208008,8.329427719116211,8.219294548034668
1699090658515322600,2.011322509765625,-4.776432514190674,7.534552574157715,6.670246124267578
1699090658525188400,2.021188232421875,-4.083311080932617,6.961141586303711,4.422090530395508
1699090658535131600,2.031131591796875,-0.6248866319656372,6.787561893463135,2.6396074295043945
1699090658545128700,2.041128662109375,1.780089020729065,7.42681360244751,3.1950621604919434
1699090658555134000,2.051134033203125,2.2421698570251465,7.33583402633667,4.258087635040283
1699090658565233000,2.06123291015625,1.0450690984725952,5.9519853591918945,4.395754337310791
1699090658575222000,2.071221923828125,-1.4676456451416016,5.316324710845947,5.2014031410217285
1699090658585159400,2.081159423828125,-4.417302131652832,5.849034786224365,6.916848659515381
1699090658595142100,2.09114208984375,-5.57370138168335,6.888118267059326,9.077615737915039
1699090658605093000,2.101093017578125,-6.271611213684082,8.195352554321289,10.92953109741211
1699090658615159600,2.11115966796875,-5.7975592613220215,9.193734169006348,10.981005668640137
1699090658625132800,2.1211328125,-6.367379188537598,9.193734169006348,8.711302757263184
1699090658635107300,2.131107421875,-6.458359241485596,8.586804389953613,5.008669853210449
1699090658645072600,2.14107275390625,-5.38096809387207,7.758410453796387,2.6396074295043945
1699090658655161900,2.151161865234375,-3.75291109085083,7.399280548095703,2.1296424865722656
1699090658665103400,2.161103271484375,-1.5298948287963867,6.8593878746032715,2.12485408782959
1699090658675350300,2.171350341796875,-0.4213795065879822,5.959167957305908,2.49834942817688
1699090658685252600,2.181252685546875,-1.5071499347686768,5.327098846435547,3.442862033843994
1699090658695197700,2.19119775390625,-4.120420932769775,5.357026100158691,5.285200119018555
1699090658705218800,2.20121875,-6.400898456573486,5.9974751472473145,7.078457355499268
1699090658715299300,2.21129931640625,-8.000225067138672,7.643488883972168,9.118317604064941
1699090658725291800,2.221291748046875,-8.688557624816895,8.663418769836426,8.96389102935791
1699090658735259400,2.23125927734375,-7.7631988525390625,8.676587104797363,6.892906665802002
1699090658745322800,2.24132275390625,-5.498284339904785,8.252813339233398,4.668693542480469
1699090658755328300,2.251328369140625,-4.005499362945557,8.164227485656738,3.0418331623077393
1699090658765490700,2.26149072265625,-3.4799721240997314,8.924386978149414,3.0322563648223877
1699090658775409400,2.271409423828125,-3.1866824626922607,9.568427085876465,4.094084739685059
1699090658785366800,2.28136669921875,-3.3279404640197754,9.495404243469238,5.5114521980285645
1699090658795338200,2.291338134765625,-4.301183223724365,9.047688484191895,6.930016994476318
1699090658805346000,2.301345947265625,-5.92325496673584,8.841787338256836,7.797914981842041
1699090658815450600,2.31145068359375,-7.322665691375732,9.184157371520996,8.469488143920898
1699090658825401900,2.32140185546875,-8.131906509399414,10.211270332336426,8.675390243530273
1699090658835385900,2.3313857421875,-7.718906402587891,11.330559730529785,8.073247909545898
1699090658845380400,2.34138037109375,-6.296750545501709,12.598289489746094,7.996633529663086
1699090658855386000,2.35138623046875,-5.8837504386901855,12.199654579162598,8.08282470703125
1699090658865466600,2.361466552734375,-5.700594425201416,11.461043357849121,8.635885238647461
1699090658875434800,2.371434814453125,-5.960365295410156,11.153388977050781,8.955511093139648
1699090658885401900,2.38140185546875,-5.893327713012695,10.87326717376709,9.283516883850098
1699090658895445000,2.391445068359375,-5.827486991882324,10.809821128845215,9.095572471618652
1699090658905455900,2.401455810546875,-5.87896203994751,11.048044204711914,9.058462142944336
1699090658915382500,2.411382568359375,-5.5545477867126465,11.076774597167969,8.828619003295898
1699090658925387800,2.4213876953125,-5.139153957366943,11.613075256347656,8.635885238647461
1699090658935390500,2.431390380859375,-4.352658748626709,11.615469932556152,8.26478385925293
1699090658945443600,2.441443603515625,-4.098873138427734,11.322179794311523,7.7847466468811035
1699090658955415800,2.451415771484375,-3.892971992492676,10.886435508728027,7.4136457443237305
1699090658965364000,2.461364013671875,-3.5230677127838135,10.41956615447998,7.06528902053833
1699090658975379500,2.47137939453125,-3.072957992553711,10.234015464782715,6.795941352844238
1699090658985468200,2.48146826171875,-3.1483752727508545,10.075998306274414,6.642712593078613
1699090658995492000,2.4914921875,-3.5446155071258545,10.17296314239502,7.0988078117370605
1699090659005435600,2.501435546875,-3.514688014984131,10.380061149597168,7.6997528076171875
1699090659015516700,2.5115166015625,-2.718616008758545,10.029311180114746,7.524975776672363
1699090659025442800,2.52144287109375,-2.252943754196167,9.703699111938477,6.904877662658691
1699090659035409000,2.531408935546875,-2.3080103397369385,9.695320129394531,6.163872241973877
1699090659045452000,2.5414521484375,-2.164358377456665,9.697713851928711,5.359420299530029
1699090659055423500,2.551423583984375,-1.7872716188430786,9.592369079589844,4.422090530395508
1699090659065476400,2.561476318359375,-1.2725181579589844,9.186552047729492,3.91092848777771
1699090659075625200,2.571625244140625,-0.9457096457481384,8.809465408325195,4.137180328369141
1699090659085472000,2.581471923828125,-0.9457096457481384,8.58919906616211,4.1180267333984375
1699090659095394000,2.59139404296875,-1.3694833517074585,8.740033149719238,4.219780445098877
1699090659105345500,2.601345458984375,-2.5115175247192383,8.84058952331543,5.51624059677124
1699090659115336200,2.611336181640625,-3.2393548488616943,8.989029884338379,6.76002836227417
1699090659125381600,2.621381591796875,-3.670311212539673,8.860940933227539,6.724115371704102
1699090659135354400,2.631354248046875,-3.3219549655914307,8.80467700958252,5.43723201751709
1699090659145334800,2.641334716796875,-2.557007312774658,9.192537307739258,4.2293572425842285
1699090659155329300,2.651329345703125,-0.669179379940033,10.886435508728027,1.5406688451766968
1699090659165226800,2.661226806640625,0.707486629486084,10.915165901184082,-0.3974374830722809
1699090659175271400,2.671271484375,1.2114660739898682,10.465055465698242,-2.4169466495513916
1699090659185278700,2.68127880859375,0.015562310814857483,10.068815231323242,-3.9480385780334473
1699090659195299800,2.6912998046875,-1.1659762859344482,10.717643737792969,-3.708618402481079
1699090659205292800,2.701292724609375,-2.871845006942749,11.832144737243652,-3.250128746032715
1699090659215293400,2.71129345703125,-4.460397720336914,12.520478248596191,-3.023876667022705
1699090659225294800,2.721294921875,-5.628767967224121,13.376404762268066,-3.532644510269165
1699090659235295700,2.731295654296875,-6.086060523986816,14.083891868591309,-3.908534288406372
1699090659245245400,2.741245361328125,-5.780799865722656,14.476540565490723,-3.928884983062744
1699090659255305700,2.7513056640625,-5.439626216888428,13.937845230102539,-4.24970817565918
1699090659265486300,2.761486328125,-6.017826080322266,12.515689849853516,-4.369418144226074
1699090659275422200,2.771422119140625,-6.997054576873779,10.843339920043945,-4.127603530883789
1699090659285379600,2.781379638671875,-7.649474620819092,9.226056098937988,-3.2549171447753906
1699090659295352300,2.791352294921875,-7.68658447265625,8.383296966552734,-2.2888567447662354
1699090659305347000,2.80134716796875,-7.60637903213501,8.200140953063965,-1.6136919260025024
1699090659315436000,2.81143603515625,-6.312312602996826,8.044517517089844,-1.5538369417190552
1699090659325403100,2.821403076171875,-4.739322185516357,7.343016624450684,-2.716221809387207
1699090659335392500,2.831392578125,-3.689464807510376,6.139930248260498,-3.9480385780334473
1699090659345367300,2.8413671875,-2.4145524501800537,4.855441093444824,-5.390544891357422
1699090659355374000,2.8513740234375,-2.8598740100860596,4.171896457672119,-5.169081687927246
1699090659365445000,2.861445068359375,-3.576937437057495,4.094084739685059,-4.593276023864746
1699090659375390500,2.871390380859375,-3.975571870803833,3.9001545906066895,-4.265270233154297
1699090659385360400,2.8813603515625,-4.437653064727783,3.8522706031799316,-3.490746021270752
1699090659395395600,2.8913955078125,-4.5609540939331055,4.529829502105713,-2.873042106628418
1699090659405364700,2.90136474609375,-4.169502258300781,5.303156852722168,-2.033874273300171
1699090659415458300,2.911458251953125,-4.095282077789307,5.310339450836182,-2.7305870056152344
1699090659425412000,2.921412109375,-4.37420654296875,4.547786235809326,-3.116053581237793
1699090659435386000,2.93138623046875,-5.673060894012451,4.490325450897217,-3.0585925579071045
1699090659445248500,2.94124853515625,-5.114014625549316,4.19344425201416,-2.911349296569824
1699090659455267300,2.951267333984375,-4.685452938079834,3.3686418533325195,-3.471592426300049
1699090659465196500,2.961196533203125,-4.531026840209961,2.692279815673828,-4.973954200744629
1699090659475181800,2.971181884765625,-4.708197593688965,1.6891093254089355,-5.598840713500977
1699090659485177900,2.981177734375,-4.566939830780029,1.2509703636169434,-4.390965938568115
1699090659495246800,2.991246826171875,-5.352237701416016,1.0785878896713257,-4.513070106506348
1699090659505177900,3.001177734375,-7.003039836883545,3.867832899093628,-2.850297212600708
1699090659515223000,3.01122314453125,-7.377732753753662,5.767632007598877,-3.928884983062744
1699090659525224400,3.021224365234375,-4.831499099731445,3.551798105239868,-5.845443248748779
1699090659535645200,3.031645263671875,-5.851428985595703,3.9839515686035156,-6.554127216339111
1699090659545539600,3.04153955078125,-3.558980941772461,1.091755986213684,-4.01268196105957
1699090659555495400,3.051495361328125,-15.995661735534668,-0.8439561128616333,-0.8918401598930359
1699090659565429200,3.06142919921875,-12.251130104064941,6.9491705894470215,1.4496891498565674
1699090659575324700,3.07132470703125,1.8614917993545532,8.722076416015625,-5.6874260902404785
1699090659585403000,3.08140283203125,5.3342814445495605,2.84790301322937,-15.816096305847168
1699090659595381000,3.091381103515625,2.4432828426361084,-0.3770867586135864,-15.174449920654297
1699090659605265400,3.101265380859375,-0.7015010714530945,-0.6548141837120056,-9.68574333190918
1699090659615220200,3.11122021484375,-0.8631097078323364,0.4141969084739685,-8.10437297821045
1699090659625145000,3.12114501953125,-2.2637176513671875,4.302380561828613,-7.329848289489746
1699090659635201500,3.131201416015625,-3.132812976837158,7.293935298919678,-4.9835309982299805
1699090659645273300,3.1412734375,-2.2804770469665527,4.9799394607543945,-6.206967830657959
1699090659655281700,3.15128173828125,-1.0857704877853394,1.745373010635376,-10.08318042755127
1699090659665299200,3.16129931640625,-2.7988216876983643,1.580173134803772,-9.99100399017334
1699090659675303200,3.17130322265625,-4.77044677734375,2.0626046657562256,-7.86614990234375
1699090659685362200,3.181362060546875,-6.818686485290527,1.9285295009613037,-5.924452304840088
1699090659695295500,3.19129541015625,-8.53652572631836,2.388216257095337,-5.061342239379883
1699090659705324800,3.20132470703125,-9.081207275390625,3.154360771179199,-4.807557106018066
1699090659715342300,3.21134228515625,-8.501810073852539,2.9975404739379883,-5.530605792999268
1699090659725318100,3.221318115234375,-8.349778175354004,2.804807186126709,-6.360196590423584
1699090659735358200,3.231358154296875,-8.390480041503906,3.6774938106536865,-6.645106792449951
1699090659745481500,3.2414814453125,-7.376535415649414,4.323928356170654,-6.862978935241699
1699090659755395800,3.251395751953125,-5.944802761077881,4.315548419952393,-7.132327079772949
1699090659765366800,3.26136669921875,-4.843470096588135,3.626018524169922,-7.601590633392334
1699090659775360500,3.271360595703125,-4.608838081359863,2.4648306369781494,-7.85537576675415
1699090659785355300,3.281355224609375,-4.752490520477295,3.116053581237793,-6.035782337188721
1699090659795394000,3.29139404296875,-4.777629375457764,4.110844135284424,-5.729324817657471
1699090659805372700,3.30137255859375,-4.845864295959473,4.716577529907227,-5.916072368621826
1699090659815367700,3.31136767578125,-5.0254292488098145,4.7153801918029785,-5.773617267608643
1699090659825383400,3.321383544921875,-5.455188751220703,3.999513864517212,-5.340266704559326
1699090659835354000,3.33135400390625,-5.826289653778076,2.937685489654541,-5.194220542907715
1699090659845504500,3.34150439453125,-5.991489887237549,2.251746654510498,-5.195417881011963
1699090659855432700,3.3514326171875,-6.166266441345215,2.2445640563964844,-4.577713489532471
1699090659865415000,3.361414794921875,-6.133944988250732,2.5055320262908936,-4.268861770629883
1699090659875371500,3.37137158203125,-5.839457988739014,3.1483752727508545,-4.800374507904053
1699090659885313300,3.381313232421875,-5.598840713500977,4.63517427444458,-5.324704647064209
1699090659895266600,3.3912666015625,-5.52821159362793,6.10401725769043,-5.473145008087158
1699090659905240300,3.401240234375,-5.357026100158691,6.655880928039551,-5.243301868438721
1699090659915220700,3.411220703125,-5.588066577911377,6.624756336212158,-4.722562789916992
1699090659925391400,3.421391357421875,-6.084863662719727,6.494272232055664,-4.307168960571289
1699090659935338800,3.4313388671875,-6.473921298980713,6.132747650146484,-4.158728122711182
1699090659945364700,3.44136474609375,-6.633135795593262,5.6191911697387695,-4.3191399574279785
1699090659955325000,3.451324951171875,-6.872556209564209,5.47075080871582,-4.528632640838623
1699090659965425000,3.4614248046875,-6.600813865661621,5.5545477867126465,-4.775235176086426
1699090659975446000,3.471446044921875,-6.372167587280273,6.129156112670898,-5.276820659637451
1699090659985476900,3.481476806640625,-7.466318130493164,7.894880294799805,-3.8606503009796143
1699090659995470600,3.491470703125,-7.752425193786621,9.135076522827148,-3.892971992492676
1699090660005523200,3.501523193359375,-8.422801971435547,9.876082420349121,-4.14915132522583
1699090660015548700,3.511548583984375,-9.99100399017334,10.535684585571289,-5.386953830718994
1699090660025547800,3.5215478515625,-10.168174743652344,10.802638053894043,-6.648698329925537
1699090660035577300,3.531577392578125,-8.380903244018555,10.267534255981445,-5.92325496673584
1699090660045520600,3.541520751953125,-5.452794551849365,9.645041465759277,-4.411316394805908
1699090660055549000,3.551548828125,-3.1076738834381104,9.649829864501953,-2.139219284057617
1699090660065402400,3.56140234375,-2.009932279586792,9.370905876159668,-0.8224082589149475
1699090660075393300,3.571393310546875,-2.2158336639404297,9.745597839355469,-0.5566518902778625
1699090660085389600,3.5813896484375,-5.4240641593933105,8.407238960266113,-1.535880446434021
1699090660095397400,3.5913974609375,-5.825092792510986,8.809465408325195,-3.159149169921875
1699090660105440300,3.601440185546875,-5.128379821777344,8.752004623413086,-2.8167781829833984
1699090660115421700,3.611421630859375,-4.616020679473877,8.070854187011719,-2.448071241378784
1699090660125372700,3.62137255859375,-2.8562827110290527,8.08402156829834,-0.6416460275650024
1699090660135379000,3.63137890625,-1.9512743949890137,9.478644371032715,0.6141127347946167
1699090660145382000,3.6413818359375,-2.1751322746276855,10.897209167480469,0.7469909191131592
1699090660155384600,3.651384521484375,-3.0178911685943604,11.834539413452148,-0.3687070608139038
1699090660165434000,3.66143408203125,-3.581725835800171,11.422736167907715,-1.84233820438385
1699090660175700200,3.6717001953125,-3.9264907836914062,9.317035675048828,-4.389768600463867
1699090660185547500,3.681547607421875,-2.9448680877685547,7.301117897033691,-6.5493388175964355
1699090660195464700,3.691464599609375,-1.7561469078063965,6.27280855178833,-7.184999465942383
1699090660205476400,3.701476318359375,-1.2066776752471924,5.795165061950684,-6.901286602020264
1699090660215437600,3.7114375,0.29568392038345337,6.072892665863037,-5.65151309967041
1699090660225341400,3.721341552734375,2.10210919380188,6.439205646514893,-4.310760021209717
1699090660235365600,3.73136572265625,4.06894588470459,6.959944248199463,-2.914940595626831
1699090660245369300,3.741369384765625,5.438429355621338,7.530961513519287,-2.1511902809143066
1699090660255301000,3.751301025390625,6.712144374847412,8.35336971282959,-2.2230162620544434
1699090660265396000,3.76139599609375,7.262810707092285,9.361329078674316,-2.853888511657715
1699090660275376600,3.771376708984375,6.920440196990967,11.002553939819336,-2.7305870056152344
1699090660285379300,3.78137939453125,4.253299236297607,12.864046096801758,-1.1097124814987183
1699090660295378200,3.791378173828125,-2.917334794998169,14.476540565490723,3.271676540374756
1699090660305352400,3.8013525390625,-2.008735179901123,13.509283065795898,2.779668092727661
1699090660315415800,3.811415771484375,-2.233790159225464,12.133813858032227,1.314416766166687
1699090660325479000,3.82147900390625,-2.584540843963623,10.597933769226074,0.25019407272338867
1699090660335390500,3.831390380859375,-2.3594858646392822,9.707290649414062,-1.170764684677124
1699090660345314300,3.841314208984375,-2.4181437492370605,8.669404029846191,-2.3056161403656006
1699090660356750600,3.85275048828125,-2.522291421890259,7.688978672027588,-2.5941176414489746
1699090660366041900,3.862041748046875,-2.522291421890259,7.688978672027588,-2.5941176414489746
1699090660376063500,3.8720634765625,1.8160020112991333,8.300697326660156,-3.184288263320923
1699090660385659600,3.88165966796875,1.8160020112991333,8.300697326660156,-3.184288263320923
1699090660395449900,3.891449951171875,2.558204412460327,8.002618789672852,-3.664325714111328
1699090660405389800,3.901389892578125,1.2425906658172607,8.269572257995605,-2.8993782997131348
1699090660415279900,3.91127978515625,0.27892449498176575,8.49941635131836,-1.4329297542572021
1699090660425459000,3.921458984375,-0.456095427274704,8.705317497253418,0.17717093229293823
1699090660435598000,3.93159814453125,-1.5478514432907104,8.877699851989746,1.3539210557937622
1699090660445369600,3.94136962890625,-2.541445016860962,8.96389102935791,1.6148890256881714
1699090660455300900,3.95130078125,-3.406949043273926,8.265981674194336,0.8415619134902954
1699090660465209300,3.961209228515625,-3.928884983062744,7.29034423828125,-0.08978256583213806
1699090660475303200,3.97130322265625,-4.357447147369385,7.42681360244751,-1.8076223134994507
1699090660485275100,3.981275146484375,-4.827907562255859,6.983886241912842,-3.202244758605957
1699090660495316500,3.99131640625,-4.252102375030518,7.1885905265808105,-4.210203647613525
1699090660505476900,4.001476806640625,-3.2106244564056396,8.119935035705566,-4.616020679473877
1699090660515451400,4.011451416015625,-1.6627731323242188,9.44871711730957,-4.705803394317627
1699090660525415700,4.021415771484375,-0.37469255924224854,10.284293174743652,-4.127603530883789
1699090660535440400,4.0314404296875,-0.706289529800415,9.75637149810791,-3.2082302570343018
1699090660545329200,4.0413291015625,0.41539400815963745,9.437943458557129,-3.0322563648223877
1699090660555198500,4.051198486328125,-0.46088382601737976,7.372944355010986,-3.2620997428894043
1699090660565181700,4.061181640625,-0.6117185354232788,5.70777702331543,-3.7900211811065674
1699090660575185000,4.071184814453125,-1.1552022695541382,4.790797710418701,-3.5913026332855225
1699090660585224000,4.081223876953125,-2.5067291259765625,4.28322696685791,-2.63362193107605
1699090660595244000,4.091244140625,-3.044227361679077,4.684255599975586,-1.3503297567367554
1699090660605277000,4.10127685546875,-3.294421434402466,5.641936302185059,-0.6033388376235962
1699090660615294000,4.1112939453125,-2.911349296569824,6.015431880950928,0.15801730751991272
1699090660625342500,4.121342529296875,-4.987122058868408,14.077905654907227,3.9240965843200684
1699090660635337700,4.131337646484375,-3.00711727142334,21.763294219970703,7.12155294418335
1699090660645336800,4.1413369140625,-5.178658485412598,21.964406967163086,5.925649166107178
1699090660655343900,4.15134375,-4.643554210662842,15.972916603088379,1.1899182796478271
1699090660665329000,4.161328857421875,-3.181894063949585,10.110713958740234,-2.5007436275482178
1699090660675300900,4.17130078125,-1.6136919260025024,7.81108283996582,-2.896984100341797
1699090660685300500,4.181300537109375,0.181959331035614,7.665036678314209,-1.523909330368042
1699090660695342300,4.19134228515625,0.7122750282287598,8.034940719604492,-1.1025298833847046
1699090660705248000,4.201248046875,0.18794482946395874,8.344989776611328,-1.7908629179000854
1699090660715284000,4.211283935546875,-2.032677173614502,8.573636054992676,-1.7872716188430786
1699090660725306600,4.221306640625,-2.3499090671539307,8.827422142028809,-1.035492181777954
1699090660735353300,4.231353271484375,-1.0761936902999878,9.440337181091309,-1.4484920501708984
1699090660745316000,4.241316162109375,0.07062894850969315,10.137049674987793,-2.033874273300171
1699090660755311600,4.2513115234375,1.3934253454208374,11.41675090789795,-1.766920804977417
1699090660765308700,4.26130859375,2.691082715988159,12.346898078918457,-0.9540894031524658
1699090660775271000,4.27127099609375,3.1292216777801514,12.415132522583008,-0.27413609623908997
1699090660785298000,4.2812978515625,3.576937437057495,12.350489616394043,-0.1412578970193863
1699090660795300900,4.29130078125,3.4991257190704346,11.933897972106934,-0.8535329103469849
1699090660805332500,4.30133251953125,2.764105796813965,11.479000091552734,-1.2413935661315918
1699090660815348200,4.31134814453125,1.9907786846160889,10.733205795288086,-0.9397241473197937
1699090660825422600,4.321422607421875,1.0690110921859741,10.607510566711426,0.4345476031303406
1699090660835453000,4.331452880859375,0.8068459630012512,11.172542572021484,1.9835960865020752
1699090660845736400,4.341736328125,-1.2713210582733154,10.76193618774414,2.5270798206329346
1699090660855554300,4.35155419921875,-4.106055736541748,10.439916610717773,1.5047557353973389
1699090660865461500,4.36146142578125,-5.215768337249756,9.48462963104248,0.16519992053508759
1699090660875318800,4.37131884765625,-4.8722004890441895,8.664615631103516,-0.6775590777397156
1699090660885330000,4.381329833984375,-3.3937809467315674,8.32104778289795,-0.7410054206848145
1699090660895334000,4.391333984375,-3.004723072052002,9.001001358032227,-0.5973533391952515
1699090660905332000,4.40133203125,-2.8227639198303223,10.451887130737305,0.8655039072036743
1699090660915391000,4.411390869140625,-2.2673089504241943,11.780669212341309,1.7070658206939697
1699090660925435400,4.421435302734375,-2.337938070297241,12.865242958068848,1.0462661981582642
1699090660935405800,4.43140576171875,-2.189497470855713,12.534843444824219,-0.24420857429504395
1699090660945389300,4.441389404296875,-1.5298948287963867,10.842142105102539,-1.1504138708114624
1699090660955392800,4.451392822265625,-1.337161660194397,10.089165687561035,-1.5693992376327515
1699090660965436000,4.461435791015625,-2.0626046657562256,9.667786598205566,-1.7202339172363281
1699090660975456500,4.47145654296875,-2.8622682094573975,9.44991397857666,-1.9764134883880615
1699090660985399800,4.48139990234375,-2.0817582607269287,9.430760383605957,-2.5055320262908936
1699090660995379500,4.49137939453125,-1.4305355548858643,9.435548782348633,-3.027467966079712
1699090661005364200,4.5013642578125,-1.258152961730957,8.942343711853027,-3.907337188720703
1699090661015361000,4.511361083984375,-0.7589619159698486,7.892486095428467,-5.151124954223633
1699090661025440500,4.5214404296875,0.05746084079146385,8.394071578979492,-6.568492412567139
1699090661035391700,4.531391845703125,-1.358709454536438,8.999804496765137,-6.215347766876221
1699090661045362400,4.541362548828125,-1.482010841369629,9.422380447387695,-5.39174222946167
1699090661055346700,4.5513466796875,-1.4329297542572021,9.558850288391113,-4.411316394805908
1699090661065383000,4.5613828125,-1.434126853942871,9.704896926879883,-3.976768970489502
1699090661075335400,4.57133544921875,-1.404199242591858,10.235212326049805,-3.713406801223755
1699090661085355300,4.581355224609375,-1.414973258972168,10.508151054382324,-3.8762125968933105
1699090661095373600,4.59137353515625,-1.9704279899597168,10.6925048828125,-3.420117139816284
1699090661105376800,4.601376708984375,-2.8562827110290527,10.334571838378906,-2.4384944438934326
1699090661115391000,4.611390869140625,-3.1244332790374756,9.464279174804688,-2.206256866455078
1699090661125462000,4.6214619140625,-2.606088638305664,8.60236644744873,-2.646790027618408
1699090661135428900,4.631428955078125,-1.6759412288665771,8.810662269592285,-2.7724854946136475
1699090661145412600,4.64141259765625,-0.46567222476005554,9.44752025604248,-2.449268341064453
1699090661155398100,4.651398193359375,-0.047884032130241394,10.129867553710938,-1.8411411046981812
1699090661165439200,4.661439208984375,2.5701754093170166,10.811017990112305,-0.37229835987091064
1699090661175494100,4.671494140625,5.907692909240723,11.046846389770508,0.851138710975647
1699090661185442600,4.681442626953125,2.5510218143463135,9.715670585632324,-0.13527239859104156
1699090661195406300,4.69140625,1.2497732639312744,8.40843677520752,-0.9660604000091553
1699090661205396700,4.701396728515625,2.053027868270874,8.180987358093262,-1.1659762859344482
1699090661215384800,4.711384765625,2.2218191623687744,8.678980827331543,-2.3295583724975586
1699090661225473500,4.7214736328125,2.321178436279297,10.630255699157715,-3.3315317630767822
1699090661235511800,4.73151171875,2.9293057918548584,10.070012092590332,-4.399345397949219
1699090661245450200,4.7414501953125,1.4113819599151611,8.78193187713623,-4.531026840209961
1699090661255423200,4.75142333984375,0.5363011956214905,8.087613105773926,-3.4775779247283936
1699090661265380600,4.761380615234375,0.31364041566848755,7.33703088760376,-2.2170307636260986
1699090661275418400,4.77141845703125,0.993593692779541,7.47110652923584,-1.3000515699386597
1699090661285386800,4.78138671875,1.8758569955825806,8.143877029418945,-0.7637503147125244
1699090661295369200,4.791369140625,1.9584569931030273,8.26119327545166,-1.7980455160140991
1699090661305644300,4.801644287109375,2.0877439975738525,8.012195587158203,-2.675520420074463
1699090661315486200,4.811486328125,1.6304513216018677,8.152256965637207,-1.7908629179000854
1699090661325339600,4.821339599609375,1.655590534210205,8.303091049194336,-0.4058171808719635
1699090661335296300,4.831296142578125,2.1057004928588867,7.354987621307373,-0.7912836670875549
1699090661345233700,4.841233642578125,2.958036184310913,7.371747016906738,-0.7422025203704834
1699090661355182800,4.851182861328125,2.431311845779419,7.789535045623779,-1.212663173675537
1699090661365131500,4.861131591796875,2.8562827110290527,8.189367294311523,-1.9788076877593994
1699090661375114800,4.87111474609375,2.669534921646118,8.8070707321167,-2.409764051437378
1699090661385140700,4.881140625,1.9955670833587646,9.692925453186035,-2.476801633834839
1699090661395304000,4.891303955078125,1.259350061416626,9.679757118225098,-2.497152328491211
1699090661405851000,4.901850830078125,1.2449848651885986,8.13908863067627,-2.5546131134033203
1699090661415581400,4.91158154296875,1.3239935636520386,7.428010940551758,-2.756923198699951
1699090661425432300,4.921432373046875,1.2737152576446533,7.663839817047119,-2.874239206314087
1699090661435376000,4.931376220703125,1.1073182821273804,8.435969352722168,-2.7772738933563232
1699090661445422000,4.941422119140625,1.3862427473068237,9.004592895507812,-3.004723072052002
1699090661455422500,4.95142236328125,1.5921441316604614,9.311050415039062,-3.2824504375457764
1699090661465367800,4.961367919921875,2.251746654510498,9.439140319824219,-2.9101521968841553
1699090661475257300,4.97125732421875,3.0657753944396973,8.966285705566406,-2.2888567447662354
1699090661485210600,4.981210693359375,3.1747114658355713,8.01339340209961,-2.632424831390381
1699090661495349200,4.991349365234375,3.2094273567199707,7.169436931610107,-4.466383457183838
1699090661505467600,5.001467529296875,2.3020248413085938,6.930016994476318,-5.067327976226807
1699090661515316700,5.011316650390625,0.5710170865058899,8.431180953979492,-3.5482068061828613
1699090661525192400,5.0211923828125,-1.0295066833496094,10.377667427062988,-0.7050924301147461
1699090661535226000,5.03122607421875,-0.9720458984375,11.338939666748047,1.1336544752120972
1699090661545225200,5.04122509765625,0.9145850539207458,11.63103199005127,1.6687586307525635
1699090661555273000,5.05127294921875,3.928884983062744,12.034455299377441,0.9576807022094727
1699090661565352000,5.06135205078125,4.481945514678955,11.948263168334961,-1.6124948263168335
1699090661575246600,5.07124658203125,2.3307554721832275,10.90798282623291,-2.4420857429504395
1699090661585334800,5.081334716796875,0.9564836025238037,10.533289909362793,-1.7561469078063965
1699090661595227400,5.091227294921875,1.138442873954773,11.219228744506836,-0.9193734526634216
1699090661605296600,5.101296630859375,1.380257248878479,11.959037780761719,-0.17956513166427612
1699090661615349800,5.111349853515625,2.234987258911133,12.868834495544434,0.16998831927776337
1699090661625315800,5.12131591796875,3.2094273567199707,12.987346649169922,-0.2561795711517334
1699090661635321300,5.1313212890625,2.6827030181884766,11.863269805908203,-1.294066071510315
1699090661645235700,5.141235595703125,1.8626888990402222,10.704475402832031,-1.459265947341919
1699090661655295500,5.15129541015625,1.4664485454559326,11.388020515441895,-0.32680854201316833
1699090661665361700,5.161361572265625,1.5430630445480347,11.368866920471191,0.21787235140800476
1699090661675371300,5.171371337890625,1.4736311435699463,8.641871452331543,-2.3056161403656006
1699090661685329700,5.18132958984375,1.290474772453308,7.939172744750977,-3.3734302520751953
1699090661695241000,5.191240966796875,-0.6512228846549988,8.51138687133789,-2.390610456466675
1699090661705298400,5.20129833984375,-0.7158663272857666,7.42681360244751,-3.0154969692230225
1699090661715300000,5.211300048828125,0.11252748221158981,7.608773231506348,-2.2601263523101807
1699090661725311000,5.22131103515625,0.9983820915222168,9.725247383117676,-0.02274491637945175
1699090661735295000,5.231294921875,3.1723172664642334,9.704896926879883,-0.9780313968658447
1699090661745283600,5.24128369140625,0.5901707410812378,9.151836395263672,-2.2182278633117676
1699090661755317200,5.251317138671875,-1.3778630495071411,9.781511306762695,-0.9552865028381348
1699090661765312300,5.261312255859375,1.0845733880996704,9.311050415039062,-0.45489832758903503
1699090661775302700,5.271302734375,0.20350714027881622,8.878896713256836,0.16519992053508759
1699090661785262800,5.281262939453125,-0.5039794445037842,8.53413200378418,-0.6643909811973572
1699090661795392500,5.291392578125,-0.7601590156555176,8.182184219360352,-2.098517894744873
1699090661805368300,5.301368408203125,-0.4967968463897705,8.107964515686035,-3.3506853580474854
1699090661815278000,5.311278076171875,-0.8930372595787048,7.437587738037109,-5.043385982513428
1699090661825265700,5.321265625,-1.139639973640442,6.687005519866943,-6.398504257202148
1699090661835327200,5.3313271484375,-0.1711854189634323,6.180631637573242,-6.418854713439941
1699090661845298700,5.341298583984375,0.31364041566848755,6.168660640716553,-5.544970989227295
1699090661855393800,5.351393798828125,-0.40462008118629456,6.118382453918457,-4.699818134307861
1699090661865641000,5.361640869140625,-0.13168109953403473,6.708553314208984,-3.44765043258667
1699090661875477500,5.3714775390625,0.33518823981285095,8.044517517089844,-2.671929121017456
1699090661885427200,5.38142724609375,1.4209587574005127,9.702502250671387,-1.8531121015548706
1699090661895517200,5.39151708984375,1.2653355598449707,9.388861656188965,-2.0841526985168457
1699090661905478100,5.40147802734375,-0.3016694188117981,7.067683219909668,-4.657919406890869
1699090661915460000,5.411460205078125,0.8619126081466675,6.252457618713379,-6.687005519866943
1699090661925396000,5.42139599609375,1.3563152551651,5.69580602645874,-6.523002624511719
1699090661935475500,5.431475341796875,2.05781626701355,6.10401725769043,-5.254075527191162
1699090661945431300,5.441431396484375,2.4803929328918457,6.953958988189697,-5.1331682205200195
1699090661955475200,5.45147509765625,2.920926094055176,9.759963035583496,-4.1647138595581055
1699090661965494500,5.46149462890625,2.3570916652679443,10.970232009887695,-2.585737943649292
1699090661975394800,5.471394775390625,1.657984733581543,11.652579307556152,-0.6512228846549988
1699090661985353000,5.48135302734375,1.2066776752471924,12.114660263061523,0.4129997789859772
1699090661995341600,5.491341552734375,1.7573440074920654,12.034455299377441,0.2346317619085312
1699090662005321200,5.5013212890625,2.2637176513671875,11.277887344360352,-0.13287819921970367
1699090662015345200,5.51134521484375,2.1799206733703613,10.439916610717773,-0.9636662006378174
1699090662025347600,5.52134765625,1.968033790588379,10.153809547424316,-1.170764684677124
1699090662035332400,5.531332275390625,2.1356279850006104,10.917559623718262,-1.744175910949707
1699090662045266200,5.54126611328125,2.0614075660705566,12.156558990478516,-1.7812861204147339
1699090662055221500,5.551221435546875,1.968033790588379,13.243526458740234,-2.27209734916687
1699090662065290200,5.561290283203125,2.2194249629974365,12.339715957641602,-3.008314371109009
1699090662075330000,5.571330078125,1.843535304069519,10.854113578796387,-3.2788591384887695
1699090662085384200,5.58138427734375,1.923741102218628,9.770736694335938,-3.0406360626220703
1699090662095378400,5.59137841796875,1.7190368175506592,8.875306129455566,-2.3080103397369385
1699090662105397800,5.601397705078125,1.4712369441986084,7.973888874053955,-1.723825216293335
1699090662115372800,5.611372802734375,1.659181833267212,7.205349922180176,-1.4760253429412842
1699090662125357800,5.62135791015625,1.6747441291809082,6.71334171295166,-1.98958158493042
1699090662135385000,5.631385009765625,1.866280198097229,6.938396453857422,-2.383427858352661
1699090662145397000,5.64139697265625,1.8567034006118774,7.988254070281982,-2.027888774871826
1699090662155433500,5.65143359375,1.1073182821273804,9.271546363830566,-0.727837324142456
1699090662165409300,5.6614091796875,0.05386953800916672,9.455899238586426,-0.14245499670505524
1699090662175402500,5.671402587890625,1.499967336654663,8.81784439086914,-0.4728548228740692
1699090662185404400,5.681404296875,2.5785553455352783,8.8070707321167,-0.646434485912323
1699090662195394600,5.69139453125,2.360682964324951,8.992621421813965,-0.36990416049957275
1699090662205411800,5.701411865234375,1.5682021379470825,9.138668060302734,0.0035913025494664907
1699090662215423000,5.711423095703125,0.7134721279144287,9.063250541687012,-0.31603461503982544
1699090662225393400,5.721393310546875,0.7577648162841797,9.05606746673584,-1.0007762908935547
1699090662235389200,5.73138916015625,1.0833762884140015,9.332598686218262,-1.799242615699768
1699090662245396700,5.741396728515625,0.9229647517204285,9.765948295593262,-1.9405004978179932
1699090662255377400,5.75137744140625,0.46567222476005554,10.223240852355957,-1.8136078119277954
1699090662265421000,5.761421142578125,1.4484920501708984,10.54645824432373,-1.8638859987258911
1699090662275403000,5.771403076171875,1.4472949504852295,10.36449909210205,-2.7461493015289307
1699090662285317000,5.781317138671875,1.4915876388549805,10.404003143310547,-3.2369606494903564
1699090662295278600,5.791278564453125,1.6160861253738403,10.487800598144531,-3.1507694721221924
1699090662305276700,5.801276611328125,1.1875240802764893,10.518924713134766,-2.7880477905273438
1699090662315240000,5.811239990234375,0.6631938815116882,10.551246643066406,-2.495955228805542
1699090662325172000,5.821171875,0.43335050344467163,10.541669845581055,-2.449268341064453
1699090662335219500,5.831219482421875,0.9971849918365479,10.509347915649414,-2.4636335372924805
1699090662345163300,5.841163330078125,1.4616601467132568,10.60152530670166,-2.1751322746276855
1699090662355135700,5.8511357421875,0.7841010689735413,10.63743782043457,-2.0434510707855225
1699090662365176300,5.86117626953125,0.3711012601852417,10.651803016662598,-2.031480073928833
1699090662375202600,5.87120263671875,0.6536170840263367,10.589553833007812,-1.9369091987609863
1699090662385261800,5.88126171875,0.9720458984375,10.382455825805664,-1.821987509727478
1699090662395338500,5.89133837890625,0.7493851184844971,10.073603630065918,-1.702277421951294
1699090662405264600,5.9012646484375,0.3411737382411957,9.710882186889648,-1.679532527923584
1699090662415295700,5.911295654296875,0.3148375153541565,9.44991397857666,-1.702277421951294
1699090662425194000,5.921194091796875,0.05147533491253853,9.379284858703613,-1.7094600200653076
1699090662435234600,5.931234619140625,0.3172317147254944,9.26915168762207,-1.8100165128707886
1699090662445201200,5.941201171875,0.4213795065879822,9.115922927856445,-2.0254945755004883
1699090662455140000,5.95114013671875,0.19153612852096558,8.9866361618042,-2.0817582607269287
1699090662465099500,5.961099609375,0.07182604819536209,8.901641845703125,-1.9979612827301025
1699090662475202300,5.971202392578125,0.1496376097202301,8.889671325683594,-1.844732403755188
1699090662485283600,5.98128369140625,0.34596213698387146,8.880094528198242,-1.7154455184936523
1699090662495284200,5.9912841796875,0.3471592366695404,8.918401718139648,-1.6627731323242188
1699090662505207600,6.00120751953125,0.2621650993824005,9.033323287963867,-1.7154455184936523
1699090662515238000,6.01123779296875,0.2106897532939911,9.247604370117188,-1.723825216293335
1699090662525295900,6.0212958984375,-0.15442600846290588,9.379284858703613,-1.9297266006469727
1699090662535295500,6.03129541015625,0.606930136680603,9.220070838928223,-2.3307554721832275
1699090662545292800,6.041292724609375,1.0211269855499268,9.004592895507812,-2.832340717315674
1699090662555271400,6.051271484375,-0.21667525172233582,9.616311073303223,-2.698265314102173
1699090662565285000,6.06128515625,0.2861070930957794,9.837775230407715,-2.785653591156006
1699090662575311000,6.07131103515625,1.0773907899856567,10.170568466186523,-2.691082715988159
1699090662585304600,6.0813046875,-0.35673606395721436,10.775104522705078,-2.0410568714141846
1699090662595295200,6.091295166015625,-1.7920600175857544,11.670536041259766,-0.3256114423274994
1699090662605295000,6.101295166015625,3.288435935974121,10.505757331848145,-1.1516109704971313
1699090662615292200,6.111292236328125,4.480748653411865,8.060079574584961,-3.3710360527038574
1699090662625305000,6.12130517578125,-3.5877113342285156,8.585607528686523,-3.9851486682891846
1699090662635307500,6.1313076171875,-0.8403648138046265,9.26795482635498,-3.288435935974121
1699090662645294800,6.141294921875,5.92205810546875,8.967482566833496,-1.9273324012756348
1699090662655292000,6.1512919921875,3.529053211212158,8.924386978149414,-0.8583213090896606
1699090662665358300,6.1613583984375,-2.0207061767578125,8.56884765625,-0.09816227108240128
1699090662675241700,6.17124169921875,-1.8471266031265259,9.170989990234375,-0.7829039692878723
1699090662685205200,6.181205322265625,-1.315613865852356,10.401609420776367,-1.4197616577148438
1699090662695270100,6.191270263671875,0.26815059781074524,10.612298965454102,-1.5741876363754272
1699090662705219000,6.201218994140625,1.45806884765625,10.128670692443848,-2.270900249481201
1699090662715247000,6.2112470703125,0.6236895322799683,9.194931983947754,-2.8371291160583496
1699090662725297000,6.221296875,-0.36750996112823486,8.189367294311523,-3.336320161819458
1699090662735276000,6.231276123046875,-0.39863458275794983,8.416815757751465,-3.09689998626709
1699090662745288000,6.241287841796875,-0.304063618183136,9.006986618041992,-2.782062292098999
1699090662755237400,6.2512373046875,-0.13287819921970367,9.481039047241211,-2.632424831390381
1699090662765321700,6.26132177734375,0.12928688526153564,9.50498104095459,-2.6659436225891113
1699090662775218400,6.271218505859375,-0.38307225704193115,9.683348655700684,-2.63362193107605
1699090662785381000,6.281381103515625,-0.3902548849582672,9.896432876586914,-2.628833532333374
1699090662795321000,6.291321044921875,-0.08259996026754379,10.047266960144043,-2.7700912952423096
1699090662805308700,6.30130859375,0.5674257874488831,9.943120002746582,-3.1040825843811035
1699090662815358700,6.311358642578125,0.27413609623908997,9.888052940368652,-3.1459810733795166
1699090662825310500,6.321310546875,0.12090718746185303,9.888052940368652,-3.1244332790374756
1699090662835353000,6.33135302734375,0.23582886159420013,9.896432876586914,-3.3004069328308105
1699090662845395200,6.341395263671875,0.28969839215278625,9.941922187805176,-3.491943120956421
1699090662855327500,6.351327392578125,0.42018240690231323,10.107122421264648,-3.598485231399536
1699090662865323800,6.36132373046875,0.9612720012664795,10.439916610717773,-3.713406801223755
1699090662875274500,6.3712744140625,1.290474772453308,10.324995040893555,-4.077325344085693
1699090662885294600,6.381294677734375,1.4197616577148438,10.08437728881836,-4.467580318450928
1699090662895357000,6.39135693359375,1.116895079612732,9.99459457397461,-4.527435302734375
1699090662905262300,6.401262451171875,1.2892776727676392,10.155006408691406,-4.265270233154297
1699090662915391700,6.411391845703125,1.5598224401474,10.279504776000977,-3.93367338180542
1699090662925386200,6.42138623046875,1.8148049116134644,10.030508041381836,-3.772064685821533
1699090662935377700,6.431377685546875,1.780089020729065,9.59596061706543,-3.5458126068115234
1699090662945357300,6.441357421875,1.2018892765045166,9.309853553771973,-2.96162748336792
1699090662955264800,6.4512646484375,0.42856210470199585,9.051279067993164,-2.516305923461914
1699090662965367800,6.461367919921875,0.2968810200691223,8.938752174377441,-2.254140853881836
1699090662975360500,6.471360595703125,0.2561795711517334,8.87410831451416,-2.1080946922302246
1699090662985348000,6.48134814453125,-0.1280897855758667,8.798690795898438,-1.8291701078414917
1699090662995345200,6.49134521484375,-0.35913026332855225,8.662221908569336,-1.677138328552246
1699090663005392600,6.501392578125,-0.23104046285152435,8.33182144165039,-2.117671489715576
1699090663015374300,6.511374267578125,0.035913024097681046,7.902062892913818,-2.7952303886413574
1699090663025429800,6.5214296875,-0.18914192914962769,7.546523571014404,-3.532644510269165
1699090663035405300,6.5314052734375,-0.12090718746185303,7.405265808105469,-3.9624037742614746
1699090663045542700,6.541542724609375,0.009576806798577309,7.493851184844971,-4.083311080932617
1699090663055374300,6.551374267578125,-0.1735796183347702,7.7643961906433105,-3.86543869972229
1699090663065441800,6.56144189453125,-0.5650315880775452,8.04810905456543,-3.669114112854004
1699090663075483400,6.5714833984375,-0.7757213711738586,8.415618896484375,-3.336320161819458
1699090663085432600,6.5814326171875,-0.669179379940033,8.89685344696045,-3.027467966079712
1699090663095403800,6.59140380859375,-0.6739677786827087,9.418789863586426,-2.8586769104003906
1699090663105299500,6.601299560546875,-0.706289529800415,9.821015357971191,-2.7688941955566406
1699090663115315700,6.611315673828125,-0.6619967818260193,9.874884605407715,-3.044227361679077
1699090663125417000,6.6214169921875,-0.4405331015586853,9.795876502990723,-3.5063083171844482
1699090663135403000,6.631403076171875,-0.38067805767059326,9.907206535339355,-3.4847605228424072
1699090663145389000,6.64138916015625,-0.547075092792511,9.701305389404297,-3.8534677028656006
1699090663155294000,6.6512939453125,-0.49320554733276367,9.48343276977539,-3.8953661918640137
1699090663165338000,6.661338134765625,-0.5901707410812378,9.41400146484375,-3.8798038959503174
1699090663175362000,6.671362060546875,-0.6488286852836609,9.418789863586426,-3.892971992492676
1699090663185374500,6.68137451171875,-0.6428431272506714,9.162610054016113,-4.02465295791626
1699090663195503900,6.69150390625,-0.5506663918495178,8.89685344696045,-4.223371982574463
1699090663205411300,6.701411376953125,0.008379706181585789,8.87171459197998,-4.531026840209961
1699090663215298300,6.71129833984375,0.14844051003456116,8.755595207214355,-4.738125324249268
1699090663225305600,6.7213056640625,-0.004788403399288654,8.50061321258545,-5.013458251953125
1699090663235276300,6.7312763671875,0.10773907601833344,8.306682586669922,-5.151124954223633
1699090663245207000,6.74120703125,0.25977087020874023,8.172607421875,-5.043385982513428
1699090663255160600,6.75116064453125,0.1364694982767105,8.200140953063965,-4.687847137451172
1699090663265168400,6.76116845703125,-0.07182604819536209,8.226476669311523,-4.356249809265137
1699090663275148000,6.77114794921875,-0.1496376097202301,8.344989776611328,-4.028244495391846
1699090663285115600,6.78111572265625,-0.15442600846290588,8.494627952575684,-3.863044500350952
1699090663295173400,6.79117333984375,-0.05267243832349777,8.595184326171875,-4.016273498535156
1699090663305229000,6.80122900390625,0.12210428714752197,8.669404029846191,-4.301183223724365
1699090663315251500,6.81125146484375,0.1364694982767105,8.741230010986328,-4.535815238952637
1699090663325180200,6.82118017578125,0.009576806798577309,8.882488250732422,-4.626794815063477
1699090663335215600,6.831215576171875,-0.1496376097202301,9.078812599182129,-4.55496883392334
1699090663345257200,6.84125732421875,-0.22266076505184174,9.14585018157959,-4.6040496826171875
1699090663355222300,6.85122216796875,-0.19393034279346466,8.980650901794434,-4.811148166656494
1699090663365177600,6.861177490234375,-0.1149216815829277,8.74721622467041,-4.95120906829834
1699090663375178200,6.87117822265625,-0.14245499670505524,8.555679321289062,-5.023035049438477
1699090663385174500,6.881174560546875,-0.19033902883529663,8.412027359008789,-4.999093055725098
1699090663395171300,6.89117138671875,-0.1388636976480484,8.301894187927246,-5.007472991943359
1699090663405175600,6.901175537109375,0.05746084079146385,8.135497093200684,-5.006275653839111
1699090663415229000,6.91122900390625,0.1280897855758667,7.949946880340576,-5.009867191314697
1699090663425175000,6.921175048828125,0.19393034279346466,7.9451584815979,-4.900930881500244
1699090663435264500,6.931264404296875,0.3256114423274994,8.188169479370117,-4.545392036437988
1699090663445277200,6.941277099609375,0.13527239859104156,8.667010307312012,-4.0569748878479
1699090663455247000,6.9512470703125,-0.2693476974964142,9.242815971374512,-3.86543869972229
1699090663465206000,6.9612060546875,-0.3016694188117981,9.704896926879883,-3.9252936840057373
1699090663475270700,6.971270751953125,0.0011971008498221636,10.129867553710938,-4.095282077789307
1699090663485235700,6.981235595703125,0.37828385829925537,10.287884712219238,-4.311957359313965
1699090663495268900,6.991268798828125,0.645237386226654,10.228029251098633,-4.437653064727783
1699090663505280500,7.001280517578125,0.7613561153411865,10.053253173828125,-4.405331134796143
1699090663515326700,7.01132666015625,0.6727706789970398,9.792284965515137,-4.1862616539001465
1699090663525353500,7.021353515625,0.767341673374176,9.737217903137207,-3.974374771118164
1699090663535310600,7.031310546875,0.9062053561210632,9.615114212036133,-3.7612907886505127
1699090663545340000,7.04133984375,1.0211269855499268,9.461885452270508,-3.600879430770874
1699090663555307000,7.05130712890625,0.9457096457481384,9.313444137573242,-3.5027170181274414
1699090663565400000,7.061400146484375,0.7110779285430908,9.186552047729492,-3.49314022064209
1699090663575433500,7.07143359375,0.811634361743927,8.956708908081055,-3.4560301303863525
1699090663585433900,7.081433837890625,1.0965443849563599,8.696937561035156,-3.3315317630767822
1699090663595446300,7.0914462890625,1.0019733905792236,8.372523307800293,-3.3243491649627686
1699090663605693700,7.101693603515625,0.6727706789970398,8.090007781982422,-3.445256233215332
1699090663615441400,7.11144140625,0.5123591423034668,7.967903137207031,-3.4979286193847656
1699090663625308200,7.12130810546875,0.5793967843055725,7.99184513092041,-3.466804027557373
1699090663635228200,7.131228271484375,0.7637503147125244,8.036137580871582,-3.375824451446533
1699090663645189600,7.141189697265625,1.072602391242981,8.145073890686035,-3.2106244564056396
1699090663655166200,7.151166259765625,1.3766659498214722,8.258798599243164,-3.0657753944396973
1699090663665187600,7.1611875,1.3623007535934448,8.462306022644043,-2.894589900970459
1699090663675194400,7.1711943359375,1.1635819673538208,8.695740699768066,-2.8227639198303223
1699090663685314600,7.181314453125,0.9062053561210632,8.927978515625,-2.8802247047424316
1699090663695255300,7.19125537109375,0.6931213736534119,9.190143585205078,-2.9053637981414795
1699090663705375200,7.201375244140625,0.7218518257141113,9.440337181091309,-2.9269115924835205
1699090663715335200,7.211335205078125,0.9612720012664795,9.616311073303223,-2.913743495941162
1699090663725319200,7.221319091796875,1.237802267074585,9.639056205749512,-2.804807186126709
1699090663735301600,7.231301513671875,1.382651448249817,9.50617790222168,-2.582146644592285
1699090663745229300,7.241229248046875,1.3563152551651,9.283516883850098,-2.2912509441375732
1699090663755312600,7.251312744140625,1.173158884048462,9.02015495300293,-2.1320366859436035
1699090663765325800,7.261325927734375,1.0271124839782715,8.802282333374023,-2.33913516998291
1699090663775287800,7.271287841796875,0.950498104095459,8.558073997497559,-2.6623523235321045
1699090663785292500,7.28129248046875,0.9074024558067322,8.35456657409668,-3.043030261993408
1699090663795309800,7.291309814453125,0.9409212470054626,8.328230857849121,-3.248931646347046
1699090663805581300,7.301581298828125,1.1025298833847046,8.429984092712402,-3.1759085655212402
1699090663815454200,7.3114541015625,1.1827356815338135,8.62271785736084,-2.874239206314087
1699090663825393700,7.3213935546875,1.1300631761550903,8.965087890625,-2.38462495803833
1699090663835318300,7.331318359375,1.072602391242981,9.048885345458984,-2.4791958332061768
1699090663845309200,7.34130908203125,1.0690110921859741,9.222464561462402,-2.5438392162323
1699090663855598600,7.3515986328125,0.9888052940368652,9.470264434814453,-2.4815900325775146
1699090663865453300,7.361453369140625,0.871489405632019,9.78989028930664,-2.3295583724975586
1699090663875392800,7.371392822265625,0.7972691655158997,10.066421508789062,-2.074575662612915
1699090663885335300,7.381335205078125,0.7793126702308655,10.186131477355957,-1.8806453943252563
1699090663895378700,7.391378662109375,0.7541735172271729,10.163386344909668,-1.889025092124939
1699090663905578200,7.401578125,0.7984662652015686,10.014945983886719,-2.1595699787139893
1699090663915458000,7.4114580078125,1.0283095836639404,9.807847023010254,-2.628833532333374
1699090663925399600,7.421399658203125,1.1743559837341309,9.654618263244629,-3.160346269607544
1699090663935405800,7.43140576171875,1.1324573755264282,9.627084732055664,-3.561375141143799
1699090663945367800,7.441367919921875,0.9684545993804932,9.674968719482422,-3.8067808151245117
1699090663955366400,7.451366455078125,0.8367735147476196,9.818621635437012,-3.8115692138671875
1699090663965374200,7.461374267578125,0.8738836050033569,9.849745750427246,-3.7900211811065674
1699090663975417000,7.4714169921875,0.872686505317688,9.877279281616211,-3.640383720397949
1699090663985482500,7.481482421875,0.8535329103469849,9.853337287902832,-3.362656354904175
1699090663995448300,7.4914482421875,0.9876081943511963,9.797073364257812,-3.0861260890960693
1699090664005440300,7.501440185546875,1.2222399711608887,9.666589736938477,-2.895787000656128
1699090664015432200,7.51143212890625,1.4616601467132568,9.532513618469238,-2.716221809387207
1699090664025426000,7.521426025390625,1.4951789379119873,9.394847869873047,-2.497152328491211
1699090664035362000,7.531362060546875,1.5394717454910278,9.284713745117188,-2.2673089504241943
1699090664045465000,7.541465087890625,1.4700398445129395,9.217676162719727,-1.9788076877593994
1699090664055785500,7.551785400390625,1.3850456476211548,9.149441719055176,-1.8567034006118774
1699090664065665800,7.561665771484375,1.455674648284912,9.07641887664795,-1.9057846069335938
1699090664075512300,7.57151220703125,1.600523829460144,9.065644264221191,-2.0446481704711914
1699090664085445600,7.581445556640625,1.5634137392044067,9.026140213012695,-2.165555477142334
1699090664095455200,7.591455322265625,1.2342109680175781,9.005789756774902,-2.270900249481201
1699090664105478700,7.601478759765625,0.8331822156906128,8.967482566833496,-2.389413356781006
1699090664115490800,7.61149072265625,0.7948749661445618,8.860940933227539,-2.3930046558380127
1699090664125416400,7.62141650390625,1.0307037830352783,8.785523414611816,-2.321178436279297
1699090664135379700,7.631379638671875,0.9564836025238037,8.752004623413086,-2.0649988651275635
1699090664145365200,7.641365234375,0.48722004890441895,8.878896713256836,-1.7753005027770996
1699090664155508700,7.6515087890625,0.2861070930957794,9.11233139038086,-1.5071499347686768
1699090664165382000,7.6613818359375,0.25258827209472656,9.550470352172852,-1.2713210582733154
1699090664176896500,7.672896484375,0.06464344263076782,10.213664054870605,-0.9588778018951416
1699090664186107600,7.682107666015625,-0.2322375625371933,10.824186325073242,-0.7386112213134766
1699090664195867000,7.691866943359375,-0.20350714027881622,11.019312858581543,-0.9576807022094727
1699090664205634000,7.701634033203125,-0.0586579404771328,10.917559623718262,-1.5933412313461304
1699090664215443000,7.71144287109375,-0.2693476974964142,10.858901977539062,-1.8854337930679321
1699090664225289000,7.7212890625,-1.170764684677124,10.767922401428223,-2.321178436279297
1699090664235238000,7.73123779296875,-0.8954314589500427,10.72602367401123,-2.7748796939849854
1699090664245220600,7.741220703125,-0.6308721303939819,10.62427043914795,-3.2824504375457764
1699090664255532800,7.75153271484375,-0.40222588181495667,10.42076301574707,-3.535038709640503
1699090664265506800,7.7615068359375,-0.10534487664699554,10.101137161254883,-3.465606927871704
1699090664275489500,7.771489501953125,-0.22505496442317963,9.787496566772461,-3.0813376903533936
1699090664285325800,7.781325927734375,-0.3519476354122162,9.546878814697266,-2.756923198699951
1699090664295247400,7.791247314453125,-0.023942016065120697,9.4822359085083,-2.4899697303771973
1699090664305212700,7.801212646484375,0.41539400815963745,9.512163162231445,-2.213439464569092
1699090664315357000,7.81135693359375,0.5410895943641663,9.419986724853516,-2.0410568714141846
1699090664325327400,7.821327392578125,0.5542576909065247,9.147047996520996,-2.0410568714141846
1699090664335295700,7.831295654296875,0.7110779285430908,8.774748802185059,-2.160767078399658
1699090664345300500,7.841300537109375,0.8415619134902954,8.49941635131836,-2.343923568725586
1699090664355271200,7.851271240234375,0.5339069962501526,8.398859977722168,-2.3977930545806885
1699090664365283000,7.861282958984375,0.1843535304069519,8.494627952575684,-2.3786394596099854
1699090664375336400,7.87133642578125,0.5638344883918762,8.671798706054688,-2.5510218143463135
1699090664385308700,7.88130859375,1.3874398469924927,8.825027465820312,-2.8802247047424316
1699090664395317800,7.89131787109375,1.8818424940109253,8.910021781921387,-3.248931646347046
1699090664405254400,7.90125439453125,2.2697031497955322,8.98543930053711,-3.4320881366729736
1699090664415304200,7.91130419921875,2.541445016860962,8.979453086853027,-3.3231520652770996
1699090664425327000,7.9213271484375,2.4444799423217773,8.87410831451416,-3.09689998626709
1699090664435380000,7.9313798828125,2.279279947280884,8.695740699768066,-3.0633809566497803
1699090664445423000,7.941423095703125,1.8183962106704712,8.887276649475098,-3.847482204437256
1699090664455332600,7.95133251953125,1.7262194156646729,9.315838813781738,-4.3825860023498535
1699090664465235700,7.961235595703125,1.8758569955825806,9.737217903137207,-4.5836992263793945
1699090664475242000,7.971241943359375,1.8782511949539185,10.007762908935547,-4.469974517822266
1699090664485250000,7.98125,1.9321208000183105,10.006566047668457,-4.278438568115234
1699090664495321000,7.991321044921875,2.2158336639404297,9.90361499786377,-3.9013516902923584
1699090664505355000,8.00135498046875,2.6360161304473877,9.654618263244629,-3.378218650817871
1699090664515428600,8.0114287109375,2.7964274883270264,9.319430351257324,-2.8574798107147217
1699090664525408300,8.021408203125,2.4217350482940674,8.93037223815918,-2.499546527862549
1699090664535375600,8.031375732421875,2.1080946922302246,8.647856712341309,-2.2170307636260986
1699090664545397800,8.041397705078126,1.7729063034057617,8.44434928894043,-2.1787235736846924
1699090664555492400,8.051492431640625,1.5418659448623657,8.271966934204102,-2.6384103298187256
1699090664565456100,8.0614560546875,1.3838485479354858,8.32104778289795,-3.31118106842041
1699090664575495200,8.0714951171875,1.3479355573654175,8.458714485168457,-3.954024076461792
1699090664585445000,8.081445068359375,1.7597382068634033,8.402450561523438,-4.345476150512695
1699090664595439000,8.091439208984376,2.3295583724975586,8.169015884399414,-4.341884613037109
1699090664605530600,8.101530517578125,2.6874914169311523,7.81108283996582,-3.936067581176758
1699090664615487700,8.11148779296875,2.5115175247192383,7.64109468460083,-3.427299737930298
1699090664625456400,8.121456298828125,2.24935245513916,7.599195957183838,-3.1316158771514893
1699090664635407600,8.13140771484375,1.703474521636963,7.592013359069824,-3.1244332790374756
1699090664645421300,8.14142138671875,1.1432312726974487,7.779958248138428,-3.228580951690674
1699090664655439600,8.151439697265625,1.0809820890426636,8.063671112060547,-3.450044631958008
1699090664665534700,8.16153466796875,1.3263877630233765,8.142680168151855,-3.93367338180542
1699090664675579400,8.171579345703124,1.6735470294952393,8.11514663696289,-4.467580318450928
1699090664685541600,8.181541748046875,1.6364368200302124,8.109161376953125,-4.728548526763916
1699090664695502300,8.19150244140625,1.337161660194397,8.1941556930542,-4.772840976715088
1699090664705725200,8.20172509765625,0.9564836025238037,8.33182144165039,-4.8470611572265625
1699090664715477500,8.2114775390625,0.9133879542350769,8.428787231445312,-4.914099216461182
1699090664725361000,8.22136083984375,0.889445960521698,8.49941635131836,-4.947618007659912
1699090664735219000,8.231218994140624,0.5913678407669067,8.503006935119629,-4.838681697845459
1699090664745151500,8.2411513671875,0.4381389021873474,8.396465301513672,-4.747702121734619
1699090664755185200,8.25118505859375,0.6871358752250671,8.329427719116211,-4.754884719848633
1699090664765214700,8.261214599609374,1.0845733880996704,8.29710578918457,-4.446032524108887
1699090664775230700,8.271230712890626,1.0690110921859741,8.591592788696289,-4.067748546600342
1699090664785203500,8.281203369140625,1.0199298858642578,8.786720275878906,-3.7493197917938232
1699090664795303700,8.2913037109375,0.9145850539207458,8.933963775634766,-3.4775779247283936
1699090664805350000,8.301349853515624,0.8403648138046265,9.010578155517578,-3.336320161819458
1699090664815415000,8.3114150390625,0.9217676520347595,8.937555313110352,-3.3722331523895264
1699090664825398000,8.32139794921875,1.2078747749328613,8.71609115600586,-3.693056106567383
1699090664835387000,8.331386962890624,1.338358759880066,8.422801971435547,-4.07014274597168
1699090664845363000,8.341363037109375,1.1109095811843872,8.254010200500488,-4.288015365600586
1699090664855396000,8.35139599609375,1.0654197931289673,8.216899871826172,-4.243722438812256
1699090664865285000,8.36128515625,1.3694833517074585,8.218097686767578,-4.047398090362549
1699090664875233500,8.371233642578124,1.6747441291809082,8.201337814331055,-3.803189516067505
1699090664885272300,8.381272216796875,1.8806453943252563,8.149862289428711,-3.671508312225342
1699090664895277600,8.391277587890626,1.8171991109848022,8.072051048278809,-3.706224203109741
1699090664905281300,8.40128125,1.580173134803772,8.17021369934082,-3.756502389907837
1699090664915290000,8.4112900390625,1.6196774244308472,8.415618896484375,-3.687070608139038
1699090664925295600,8.421295654296875,1.580173134803772,8.708909034729004,-3.5482068061828613
1699090664935270000,8.431269775390625,1.212663173675537,9.081207275390625,-3.4117374420166016
1699090664945288400,8.441288330078125,1.2533645629882812,9.433155059814453,-3.3662476539611816
1699090664955290000,8.4512900390625,1.623268723487854,9.62947940826416,-3.403357744216919
1699090664965337600,8.461337646484376,2.0925323963165283,9.59596061706543,-3.4955344200134277
1699090664975409000,8.471408935546876,2.565387010574341,9.318233489990234,-3.6140475273132324
1699090664985550800,8.48155078125,3.026270866394043,8.919598579406738,-3.6774938106536865
1699090664995452400,8.491452392578125,3.3267433643341064,8.494627952575684,-3.691859006881714
1699090665005430800,8.5014306640625,2.914940595626831,8.157045364379883,-3.8594532012939453
1699090665015372800,8.511372802734375,1.821987509727478,8.179790496826172,-3.885789394378662
1699090665025346000,8.521345947265624,1.0749965906143188,8.638279914855957,-3.6547489166259766
1699090665035322400,8.531322265625,0.9804255962371826,9.295488357543945,-3.2561142444610596
1699090665045329700,8.54132958984375,1.3419500589370728,9.743204116821289,-2.9867665767669678
1699090665055344400,8.551344482421875,1.6950948238372803,9.898826599121094,-2.918531894683838
1699090665065426700,8.5614267578125,1.922544002532959,9.682151794433594,-3.4129345417022705
1699090665075403300,8.5714033203125,2.580949544906616,9.317035675048828,-3.8367083072662354
1699090665085363700,8.58136376953125,3.001131772994995,8.859743118286133,-4.11443567276001
1699090665095374800,8.591374755859375,2.716221809387207,8.49941635131836,-4.0761284828186035
1699090665105427500,8.601427490234375,1.8375498056411743,8.426392555236816,-3.7445313930511475
1699090665115370800,8.611370849609376,1.2952631711959839,8.637083053588867,-3.2297780513763428
1699090665125362000,8.62136181640625,1.558625340461731,8.99740982055664,-2.692279815673828
1699090665135263500,8.631263427734375,2.072181463241577,9.163806915283203,-2.4863784313201904
1699090665145275600,8.641275634765625,2.079364061355591,9.163806915283203,-2.537853717803955
1699090665155240400,8.651240478515625,1.745373010635376,9.08719253540039,-2.698265314102173
1699090665165216300,8.66121630859375,1.766920804977417,9.010578155517578,-2.9436709880828857
1699090665175224600,8.671224609375,2.1140801906585693,8.876502990722656,-3.1507694721221924
1699090665185273900,8.68127392578125,2.4408886432647705,8.707711219787598,-3.3028011322021484
1699090665195338500,8.69133837890625,2.4169466495513916,8.597578048706055,-3.3638534545898438
1699090665205287700,8.70128759765625,2.099714994430542,8.635885238647461,-3.335123062133789
1699090665215433500,8.71143359375,1.92134690284729,8.828619003295898,-3.245340347290039
1699090665225389000,8.72138916015625,2.1116859912872314,9.071630477905273,-3.1866824626922607
1699090665235447000,8.731447021484374,2.494758129119873,9.126696586608887,-3.2190041542053223
1699090665245459000,8.741458984375,2.7533318996429443,9.05606746673584,-3.2764649391174316
1699090665255479000,8.75147900390625,2.7988216876983643,8.937555313110352,-3.3650505542755127
1699090665265362000,8.76136181640625,2.8407204151153564,8.87171459197998,-3.420117139816284
1699090665275408100,8.771408203125,3.0202853679656982,8.852560997009277,-3.335123062133789
1699090665285306600,8.781306640625,3.1471781730651855,8.826224327087402,-3.161543369293213
1699090665295301600,8.791301513671876,3.1316158771514893,8.731653213500977,-3.0095114707946777
1699090665305330000,8.801329833984376,3.0131027698516846,8.65982723236084,-2.9065608978271484
1699090665315234800,8.81123486328125,2.7533318996429443,8.724471092224121,-2.8419175148010254
1699090665325196000,8.821196044921875,2.492363929748535,8.866926193237305,-2.7976245880126953
1699090665335239400,8.831239501953124,2.4361002445220947,9.02135181427002,-2.759317398071289
1699090665345195800,8.84119580078125,2.537853717803955,9.02015495300293,-2.7928361892700195
1699090665355257900,8.8512578125,2.541445016860962,8.919598579406738,-2.8419175148010254
1699090665365309400,8.861309326171876,2.33913516998291,8.811859130859375,-2.894589900970459
1699090665375305700,8.8713056640625,2.1799206733703613,8.71728801727295,-3.0406360626220703
1699090665385406000,8.881406005859375,2.234987258911133,8.881291389465332,-3.308786630630493
1699090665395355400,8.89135546875,2.293645143508911,9.045293807983398,-3.341108560562134
1699090665405559300,8.901559326171874,2.027888774871826,9.17936897277832,-3.3698389530181885
1699090665415462700,8.911462646484376,1.8363527059555054,9.345766067504883,-3.420117139816284
1699090665425488000,8.92148779296875,2.2409727573394775,9.463082313537598,-3.3674447536468506
1699090665435403800,8.93140380859375,2.8167781829833984,9.495404243469238,-3.2740707397460938
1699090665445369300,8.941369384765625,2.9161376953125,9.41759204864502,-3.2309751510620117
1699090665455631600,8.951631591796875,2.890998601913452,9.275136947631836,-3.1866824626922607
1699090665465389300,8.961389404296876,2.808398485183716,9.07641887664795,-3.2632968425750732
1699090665475289000,8.9712890625,2.7006595134735107,8.948328971862793,-3.3435027599334717
1699090665485244700,8.98124462890625,2.5737667083740234,8.924386978149414,-3.4608185291290283
1699090665495329800,8.991329833984375,2.4001872539520264,9.070432662963867,-3.469198226928711
1699090665505304800,9.001304931640625,2.248155355453491,9.38167953491211,-3.450044631958008
1699090665515285500,9.011285400390625,2.031480073928833,9.805453300476074,-3.380612850189209
1699090665525286100,9.0212861328125,1.6196774244308472,10.168174743652344,-3.2597055435180664
1699090665535306200,9.03130615234375,1.7860745191574097,10.327388763427734,-3.313575267791748
1699090665545405000,9.041405029296875,2.206256866455078,10.277111053466797,-3.2764649391174316
1699090665555384600,9.051384521484374,2.27209734916687,10.017339706420898,-3.35667085647583
1699090665565449200,9.06144921875,2.1990742683410645,9.710882186889648,-3.404554843902588
1699090665575419600,9.071419677734376,2.1320366859436035,9.488221168518066,-3.397372245788574
1699090665585610800,9.08161083984375,1.868674397468567,9.41519832611084,-3.2776620388031006
1699090665595559000,9.091558837890625,1.8327614068984985,9.329007148742676,-3.2142157554626465
1699090665605470500,9.101470458984375,2.2218191623687744,9.160215377807617,-3.4129345417022705
1699090665615447300,9.111447265625,2.7928361892700195,8.942343711853027,-3.7648820877075195
1699090665625393200,9.12139306640625,2.8215668201446533,8.738836288452148,-4.201824188232422
1699090665635322000,9.131322021484374,2.474407434463501,8.744821548461914,-4.266467571258545
1699090665645333000,9.1413330078125,2.4600422382354736,8.887276649475098,-4.073734283447266
1699090665655785000,9.151784912109376,2.583343744277954,8.969876289367676,-3.794809579849243
1699090665665570000,9.161570068359374,2.896984100341797,8.975862503051758,-3.5901055335998535
1699090665675467000,9.171467041015624,3.4141316413879395,8.911218643188477,-3.551798105239868
1699090665685341400,9.181341552734375,3.821146011352539,8.797493934631348,-3.5913026332855225
1699090665695364400,9.1913642578125,2.4396915435791016,8.880094528198242,-3.529053211212158
1699090665705270000,9.20127001953125,0.7996633648872375,9.105149269104004,-3.3051953315734863
1699090665715282700,9.21128271484375,0.7613561153411865,9.228450775146484,-3.422511339187622
1699090665725329400,9.221329345703126,1.8734627962112427,9.372102737426758,-3.465606927871704
1699090665735411700,9.23141162109375,2.6587610244750977,9.396044731140137,-3.4368765354156494
1699090665745279200,9.241279296875,2.6671407222747803,9.246406555175781,-3.485957622528076
1699090665755596300,9.25159619140625,1.945288896560669,8.983044624328613,-3.535038709640503
1699090665765544200,9.261544189453126,1.9835960865020752,8.68017864227295,-3.621230125427246
1699090665775483100,9.271483154296876,2.2421698570251465,8.44315242767334,-3.7684733867645264
1699090665785506000,9.281506103515625,1.7920600175857544,8.402450561523438,-3.6164417266845703
1699090665795475500,9.291475341796875,1.558625340461731,8.453926086425781,-3.4967315196990967
1699090665805436700,9.301436767578124,1.802833914756775,8.507795333862305,-3.578134536743164
1699090665815378400,9.31137841796875,1.479616641998291,8.604761123657227,-3.6559460163116455
1699090665825446700,9.32144677734375,1.5538369417190552,8.695740699768066,-3.688267707824707
1699090665835661300,9.331661376953125,1.6531962156295776,8.797493934631348,-3.732560396194458
1699090665845539000,9.3415390625,1.5394717454910278,8.937555313110352,-3.691859006881714
1699090665855505200,9.351505126953125,1.4748282432556152,9.046490669250488,-3.6535518169403076
1699090665865342000,9.361342041015625,1.5693992376327515,9.131484985351562,-3.6128504276275635
1699090665875418000,9.371418212890624,1.6843209266662598,9.105149269104004,-3.5410242080688477
1699090665885473000,9.38147314453125,1.8387469053268433,8.980650901794434,-3.444059133529663
1699090665895472400,9.391472412109374,1.9357120990753174,8.888473510742188,-3.3686418533325195
1699090665905314800,9.401314697265626,1.2234370708465576,8.89445972442627,-3.2082302570343018
1699090665915181800,9.411181884765625,1.1839327812194824,8.888473510742188,-3.161543369293213
1699090665925170000,9.421169921875,1.1623848676681519,8.9064302444458,-3.159149169921875
1699090665935222000,9.431221923828126,1.1300631761550903,9.012971878051758,-3.089717388153076
1699090665945259000,9.441259033203124,1.2617442607879639,9.119514465332031,-2.955641984939575
1699090665955275000,9.45127490234375,1.0965443849563599,9.218873977661133,-2.78086519241333
1699090665965279000,9.461279052734374,0.9397241473197937,9.247604370117188,-2.7473464012145996
1699090665975324000,9.471323974609374,1.3958195447921753,9.2033109664917,-2.9053637981414795
1699090665985418000,9.48141796875,1.522712230682373,9.1446533203125,-3.1016883850097656
1699090665995456000,9.4914560546875,1.7860745191574097,9.08719253540039,-3.1495723724365234
1699090666005421000,9.501421142578126,1.1863269805908203,8.932766914367676,-3.3243491649627686
1699090666015311600,9.5113115234375,0.690727174282074,9.033323287963867,-3.531447410583496
1699090666025349600,9.521349609375,0.6703764796257019,9.258378028869629,-3.7193922996520996
1699090666035392300,9.531392333984375,0.8870517015457153,9.44991397857666,-3.7636849880218506
1699090666045487600,9.541487548828124,0.8068459630012512,9.530119895935059,-3.709815502166748
1699090666055494400,9.551494384765626,0.6548141837120056,9.603142738342285,-3.5960910320281982
1699090666065290200,9.561290283203125,0.8750807046890259,9.65222454071045,-3.4380736351013184
1699090666075206100,9.5712060546875,1.1013327836990356,9.645041465759277,-3.2956185340881348
1699090666085179600,9.5811796875,0.9744400978088379,9.546878814697266,-3.294421434402466
1699090666095241700,9.59124169921875,1.1815385818481445,9.340977668762207,-3.359065055847168
1699090666105221400,9.601221435546876,1.5059528350830078,9.154230117797852,-3.448847532272339
1699090666115232300,9.611232177734376,0.933738648891449,9.11113452911377,-3.5194764137268066
1699090666125171200,9.621171142578126,0.667982280254364,9.099164009094238,-3.6727054119110107
1699090666135295000,9.631294921875,0.6093243360519409,9.214085578918457,-3.581725835800171
1699090666145289500,9.64128955078125,0.7649474143981934,9.3828763961792,-3.3865983486175537
1699090666155635200,9.65163525390625,0.7398083209991455,9.501389503479004,-3.2154128551483154
1699090666165369000,9.661369140625,0.8307880163192749,9.491812705993652,-3.1268274784088135
1699090666175339500,9.671339599609375,1.0438719987869263,9.350554466247559,-3.1316158771514893
1699090666185347800,9.681347900390625,0.9445125460624695,9.188945770263672,-3.2082302570343018
1699090666195415300,9.691415283203124,0.8954314589500427,9.058462142944336,-3.294421434402466
1699090666205376300,9.701376220703125,1.0283095836639404,8.99860668182373,-3.338714361190796
1699090666215280600,9.71128076171875,0.6584054827690125,9.039308547973633,-3.2632968425750732
1699090666225227300,9.721227294921874,0.9445125460624695,8.9866361618042,-3.3494882583618164
1699090666235192600,9.731192626953124,1.4844050407409668,8.939949035644531,-3.488351821899414
1699090666245172700,9.7411728515625,0.5147533416748047,9.096769332885742,-3.4847605228424072
1699090666255233500,9.751233642578125,0.4692635238170624,9.17577838897705,-3.3925838470458984
1699090666265266700,9.7612666015625,0.950498104095459,9.118317604064941,-3.308786630630493
1699090666275286300,9.771286376953125,0.5506663918495178,9.083600997924805,-3.1244332790374756
1699090666285278700,9.78127880859375,0.33758243918418884,9.009381294250488,-3.0322563648223877
1699090666295295700,9.791295654296874,0.6799532771110535,8.854954719543457,-3.0861260890960693
1699090666305294800,9.801294921875,1.0630255937576294,8.701725959777832,-3.2082302570343018
1699090666315311400,9.811311279296875,0.730231523513794,8.447940826416016,-3.445256233215332
1699090666325326800,9.821326904296875,0.9804255962371826,8.29710578918457,-3.60566782951355
1699090666335338800,9.8313388671875,0.8858546018600464,8.322244644165039,-3.6343982219696045
1699090666345343500,9.841343505859374,1.2030863761901855,8.407238960266113,-3.5410242080688477
1699090666355369700,9.85136962890625,1.115697979927063,8.57004451751709,-3.4572272300720215
1699090666365379800,9.8613798828125,0.7577648162841797,8.756793022155762,-3.4153287410736084
1699090666375396400,9.871396240234375,1.2521674633026123,8.819042205810547,-3.4105403423309326
1699090666385414100,9.8814140625,1.381454348564148,8.808267593383789,-3.361459255218506
1699090666396208600,9.892208740234375,0.8978256583213806,8.797493934631348,-3.2836475372314453
1699090666405654800,9.90165478515625,1.280897855758667,8.719682693481445,-3.2800562381744385
1699090666415389400,9.911389404296875,1.9620482921600342,8.639476776123047,-3.448847532272339
1699090666425292800,9.921292724609375,1.3491326570510864,8.766369819641113,-3.5434184074401855
1699090666435237400,9.9312373046875,1.5095441341400146,8.878896713256836,-3.708618402481079
1699090666445210000,9.941210205078125,1.5849615335464478,8.96269416809082,-3.9863457679748535
1699090666455311600,9.9513115234375,1.215057373046875,9.064447402954102,-4.2724528312683105
1699090666465229800,9.961229736328125,-2.491166830062866,6.180631637573242,-6.053739070892334
1699090666475327500,9.971327392578125,8.582015991210938,7.394492149353027,-3.6284127235412598
1699090666485403100,9.981403076171874,-0.49320554733276367,10.316615104675293,-2.89339280128479
1699090666495430100,9.99143017578125,2.426523447036743,11.547234535217285,-3.135207176208496
1699090666505388500,10.001388427734375,2.6204538345336914,12.071564674377441,-3.867832899093628
1699090666515273700,10.011273681640626,1.745373010635376,11.888408660888672,-4.402936935424805
1699090666525297000,10.021296875,1.316810965538025,11.404779434204102,-4.8482584953308105
1699090666535319600,10.031319580078126,1.2976573705673218,10.954669952392578,-5.139153957366943
1699090666545336800,10.0413369140625,1.5933412313461304,10.754754066467285,-5.052962779998779
1699090666555349200,10.051349365234374,1.3623007535934448,10.757147789001465,-4.734533786773682
1699090666565345800,10.061345703125,1.1887211799621582,10.861295700073242,-4.402936935424805
1699090666575347500,10.071347412109375,1.5741876363754272,10.92953109741211,-4.14915132522583
1699090666585436700,10.081436767578126,2.0039467811584473,10.94150161743164,-3.95641827583313
1699090666595413800,10.091413818359374,2.626439332962036,10.931924819946289,-3.8091750144958496
1699090666605417000,10.1014169921875,2.6360161304473877,10.882843971252441,-3.6583402156829834
1699090666615486500,10.111486572265624,2.676717519760132,10.771512985229492,-3.578134536743164
1699090666625510100,10.12151025390625,3.3063924312591553,10.411186218261719,-4.073734283447266
1699090666635466200,10.13146630859375,4.037821292877197,10.153809547424316,-4.4508209228515625
1699090666645504500,10.14150439453125,4.325125217437744,9.973047256469727,-4.624400615692139
1699090666655471400,10.151471435546876,4.800374507904053,10.322600364685059,-4.259284973144531
1699090666665641200,10.16164111328125,4.327519416809082,10.334571838378906,-3.998316764831543
1699090666675531000,10.171531005859375,4.6291890144348145,10.345345497131348,-4.040215492248535
1699090666685403600,10.181403564453126,4.8937482833862305,10.556035041809082,-4.185064792633057
1699090666695465200,10.19146533203125,4.854243755340576,10.709263801574707,-4.447229862213135
1699090666705470700,10.201470703125,4.399345397949219,11.028889656066895,-4.800374507904053
1699090666715612400,10.2116123046875,6.3973069190979,11.458649635314941,-5.0050787925720215
1699090666725530000,10.221530029296876,7.186196327209473,11.961431503295898,-5.153519153594971
1699090666735380000,10.2313798828125,5.7772088050842285,12.293028831481934,-4.854243755340576
1699090666745310000,10.24131005859375,6.645106792449951,11.960234642028809,-4.906916618347168
1699090666755404500,10.251404541015624,6.563704013824463,11.731588363647461,-4.835090160369873
1699090666765595600,10.261595703125,4.662707805633545,12.106281280517578,-4.367023944854736
1699090666775502300,10.27150244140625,4.410119533538818,12.464214324951172,-4.36343240737915
1699090666785444000,10.281444091796875,4.195838451385498,12.656947135925293,-4.978742599487305
1699090666795427600,10.291427490234375,3.8343141078948975,12.442666053771973,-5.246892929077148
1699090666805426700,10.3014267578125,3.44765043258667,12.076353073120117,-5.307945251464844
1699090666815402000,10.311402099609374,2.851494312286377,11.860875129699707,-4.9619832038879395
1699090666825442600,10.321442626953125,2.978386878967285,11.766304016113281,-4.623203277587891
1699090666835394300,10.331394287109376,2.6563668251037598,11.707646369934082,-4.574122428894043
1699090666845396200,10.341396240234374,2.0626046657562256,11.842918395996094,-4.8051629066467285
1699090666855390500,10.351390380859375,1.4460978507995605,12.205639839172363,-5.051765441894531
1699090666865474300,10.361474365234375,0.7326257228851318,12.42351245880127,-5.139153957366943
1699090666875431700,10.371431640625,1.3335703611373901,12.537237167358398,-5.214571475982666
1699090666885452300,10.381452392578124,0.46806642413139343,12.661735534667969,-4.756081581115723
1699090666895303200,10.39130322265625,-0.2669534981250763,12.49174690246582,-4.592078685760498
1699090666905230600,10.401230712890625,0.07422025501728058,12.27267837524414,-4.687847137451172
1699090666915191800,10.41119189453125,-0.751779317855835,12.36724853515625,-4.410119533538818
1699090666925332500,10.42133251953125,-0.36152446269989014,12.161347389221191,-4.179079055786133
1699090666935312600,10.431312744140625,-0.9876081943511963,11.833341598510742,-4.0545806884765625
1699090666945308400,10.441308349609375,0.181959331035614,11.390414237976074,-4.121618270874023
1699090666955305200,10.45130517578125,-1.699883222579956,11.4263277053833,-3.7684733867645264
1699090666965352200,10.461352294921875,-1.5514427423477173,11.259930610656738,-3.999513864517212
1699090666975341600,10.471341552734375,-1.8124107122421265,11.219228744506836,-3.8283286094665527
1699090666985336300,10.48133642578125,-1.6651673316955566,11.23598861694336,-3.2381577491760254
1699090666995404000,10.491404052734374,-1.6543933153152466,11.150994300842285,-2.5462334156036377
1699090667005369600,10.50136962890625,-1.9596540927886963,10.901997566223145,-2.1308395862579346
1699090667015611000,10.51161083984375,-1.8818424940109253,10.508151054382324,-2.031480073928833
1699090667025440000,10.52143994140625,-1.8734627962112427,10.11550235748291,-2.182314872741699
1699090667035332900,10.531332763671875,-2.1787235736846924,9.806650161743164,-2.7928361892700195
1699090667045311000,10.54131103515625,-1.9165585041046143,9.50498104095459,-2.9867665767669678
1699090667055332600,10.55133251953125,-1.8950105905532837,9.214085578918457,-2.715024709701538
1699090667065230300,10.561230224609375,-1.3934253454208374,8.80467700958252,-2.515108823776245
1699090667075227100,10.57122705078125,-0.912190854549408,8.457517623901367,-2.005143880844116
1699090667085183000,10.581182861328125,-1.1444283723831177,8.131906509399414,-1.5622166395187378
1699090667095256600,10.591256591796874,-0.9648633003234863,7.943961143493652,-1.4437036514282227
1699090667105271300,10.601271240234375,-1.0594342947006226,8.08162784576416,-1.8926163911819458
1699090667115366100,10.6113662109375,-2.0937294960021973,8.608352661132812,-2.5043349266052246
1699090667125329700,10.62132958984375,-3.1759085655212402,9.105149269104004,-2.4157495498657227
1699090667135303700,10.6313037109375,-3.7600936889648438,9.385271072387695,-2.009932279586792
1699090667145275400,10.641275390625,-4.367023944854736,9.422380447387695,-1.9488801956176758
1699090667155288600,10.65128857421875,-4.201824188232422,9.309853553771973,-1.7956513166427612
1699090667165295900,10.6612958984375,-4.380191802978516,8.900444984436035,-2.121262788772583
1699090667175291000,10.671290771484376,-3.9671921730041504,8.561665534973145,-2.497152328491211
1699090667185323500,10.681323486328125,-3.664325714111328,8.604761123657227,-3.155557870864868
1699090667195427800,10.691427734375,-4.3179426193237305,9.167398452758789,-3.758896589279175
1699090667205427000,10.701427001953125,-6.8557963371276855,9.525331497192383,-3.466804027557373
1699090667215502800,10.7115029296875,-8.287528991699219,8.810662269592285,-3.450044631958008
1699090667225424000,10.721423828125,-8.165425300598145,7.7847466468811035,-3.3207578659057617
1699090667235438600,10.7314384765625,-8.59997272491455,7.0772600173950195,-1.868674397468567
1699090667245389800,10.741389892578125,-4.898536682128906,6.421248912811279,0.08140286058187485
1699090667255363800,10.75136376953125,-3.5625722408294678,3.840299606323242,2.3702597618103027
1699090667265524000,10.76152392578125,-2.208651065826416,1.800439715385437,2.6132712364196777
1699090667275424500,10.771424560546874,1.3180080652236938,-0.4273650050163269,2.5917234420776367
1699090667285376800,10.781376708984375,4.321534156799316,-2.6443958282470703,3.2740707397460938
1699090667295327000,10.791326904296875,1.8195933103561401,-4.388571739196777,5.623979568481445
1699090667305347300,10.801347412109376,0.7984662652015686,-7.556100368499756,2.8670566082000732
1699090667315469300,10.81146923828125,10.15021800994873,-9.129091262817383,-1.5909470319747925
1699090667325381000,10.821381103515625,3.362656354904175,-9.259574890136719,-0.707486629486084
1699090667335346400,10.831346435546875,4.228160381317139,-9.795876502990723,-0.18914192914962769
1699090667345308200,10.84130810546875,4.747702121734619,-7.570465564727783,-0.038307227194309235
1699090667355326200,10.851326171875,8.183381080627441,-4.675876140594482,1.2222399711608887
1699090667365451000,10.861450927734374,5.024232387542725,-3.135207176208496,-0.02513911761343479
1699090667375423500,10.871423583984376,-0.32202014327049255,-2.2852654457092285,-2.232593059539795
1699090667385354800,10.881354736328126,-0.8331822156906128,-1.96683669090271,-4.923676013946533
1699090667395299800,10.8912998046875,6.513425827026367,-0.15442600846290588,-2.188300371170044
1699090667405349400,10.901349365234376,-3.487154722213745,2.1703438758850098,1.3754688501358032
1699090667415348700,10.9113486328125,-5.657498836517334,3.77565598487854,1.6962919235229492
1699090667425317400,10.9213173828125,-1.6077064275741577,6.329071998596191,0.5554547905921936
1699090667435232300,10.931232177734374,-1.4401123523712158,8.033743858337402,-0.44771572947502136
1699090667445249000,10.9412490234375,-2.056619167327881,7.514202117919922,-1.1875240802764893
1699090667455300000,10.951300048828125,-0.7649474143981934,4.280832767486572,-2.231395959854126
1699090667465249000,10.9612490234375,-0.27653029561042786,1.2892776727676392,-2.163161277770996
1699090667475263000,10.971262939453124,1.036689281463623,-1.1276689767837524,-2.8191723823547363
1699090667485284000,10.9812841796875,1.1755530834197998,-1.5921441316604614,-3.7253777980804443
1699090667495216000,10.991216064453125,2.0913352966308594,-0.25977087020874023,-3.8953661918640137
1699090667505370000,11.0013701171875,0.5374982953071594,2.717418909072876,-3.0346505641937256
1699090667515379500,11.01137939453125,1.7070658206939697,5.175066947937012,-1.2413935661315918
1699090667525370400,11.021370361328126,4.219780445098877,7.225700855255127,2.1308395862579346
1699090667535379700,11.031379638671876,1.7381904125213623,7.307103633880615,4.5154643058776855
1699090667545412900,11.041412841796875,0.3256114423274994,4.649539470672607,3.7708675861358643
1699090667555396400,11.051396240234375,2.8371291160583496,0.5817909836769104,0.23104046285152435
1699090667566777600,11.062777587890626,4.14915132522583,-5.313930511474609,-3.4739866256713867
1699090667576148000,11.07214794921875,1.6112977266311646,-5.219359874725342,-2.2840683460235596
1699090667585715000,11.08171484375,0.7386112213134766,-3.19865345954895,0.7637503147125244
1699090667595550500,11.091550537109375,1.745373010635376,-1.8507179021835327,1.1839327812194824
1699090667605433300,11.101433349609374,1.501164436340332,-1.5203180313110352,0.10055647045373917
1699090667615385000,11.111385009765625,0.38546648621559143,-1.2892776727676392,0.3387795388698578
1699090667625356000,11.12135595703125,-1.3706804513931274,-0.9540894031524658,0.9493009448051453
1699090667635321600,11.131321533203124,-0.8188169598579407,-0.5638344883918762,0.45489832758903503
1699090667645340700,11.141340576171874,1.9596540927886963,-0.16519992053508759,-0.2992752194404602
1699090667655333400,11.15133349609375,1.9776105880737305,0.17836803197860718,-0.14365209639072418
1699090667665382700,11.161382568359375,1.4963760375976562,0.3663128614425659,0.08499415963888168
1699090667675372300,11.171372314453125,2.898181200027466,0.2585737705230713,-0.6991068720817566
1699090667685359000,11.181359130859375,5.239710330963135,0.6153098344802856,-1.036689281463623
1699090667695239200,11.1912392578125,3.338714361190796,1.824381709098816,-0.6667851805686951
1699090667705274000,11.201274169921875,2.433706045150757,3.9264907836914062,-0.9588778018951416
1699090667715230500,11.21123046875,4.942829608917236,8.396465301513672,-1.702277421951294
1699090667725253600,11.221253662109374,12.392388343811035,19.230228424072266,-7.144298076629639
1699090667735272000,11.23127197265625,7.886500358581543,34.9373893737793,-11.453861236572266
1699090667745262800,11.241262939453126,2.448071241378784,39.2218132019043,-9.659406661987305
1699090667755303400,11.251303466796875,8.832210540771484,39.2218132019043,-15.184026718139648
1699090667765350100,11.26135009765625,1.5095441341400146,38.860286712646484,-13.952210426330566
1699090667775321000,11.271321044921875,-2.4839842319488525,27.746402740478516,-9.974244117736816
1699090667785305000,11.28130517578125,-4.171896457672119,21.713014602661133,-6.845022678375244
1699090667795311600,11.2913115234375,-5.538985729217529,23.439233779907227,-4.821922302246094
1699090667805300200,11.30130029296875,-1.6711528301239014,24.01982879638672,-4.285621166229248
1699090667815340500,11.311340576171874,-6.18182897567749,23.08489227294922,-2.9544448852539062
1699090667825313300,11.321313232421875,-8.93037223815918,24.079683303833008,-4.333505153656006
1699090667835326200,11.331326171875,-5.12000036239624,23.851037979125977,-7.620744228363037
1699090667845318100,11.341318115234374,-3.2980127334594727,21.316774368286133,-9.099164009094238
1699090667855491600,11.35149169921875,-3.1076738834381104,18.041507720947266,-8.327033042907715
1699090667865469700,11.3614697265625,1.86508309841156,15.061923027038574,-7.564480304718018
1699090667875366000,11.371365966796875,3.1435868740081787,10.040084838867188,-5.408501625061035
1699090667885269000,11.38126904296875,2.649184226989746,9.963470458984375,-3.44765043258667
1699090667895310000,11.39131005859375,2.256535053253174,11.08994197845459,-2.1308395862579346
1699090667905233000,11.40123291015625,1.7908629179000854,12.284648895263672,-2.099714994430542
1699090667915335400,11.41133544921875,0.933738648891449,13.103466033935547,-2.9005753993988037
1699090667925328000,11.421327880859375,0.910993754863739,13.868412971496582,-4.490325450897217
1699090667935332900,11.431332763671875,1.40180504322052,14.54836654663086,-5.701791286468506
1699090667945312500,11.4413125,0.6272808313369751,14.596250534057617,-6.555324077606201
1699090667955298800,11.451298828125,-0.30885201692581177,13.945027351379395,-7.654263019561768
1699090667965308400,11.461308349609375,1.3096283674240112,12.684480667114258,-8.202534675598145
1699090667975274200,11.471274169921875,0.36990416049957275,11.504138946533203,-7.513004779815674
1699090667985222700,11.48122265625,-0.3878606855869293,11.24795913696289,-6.467936038970947
1699090667995158800,11.49115869140625,-0.23343466222286224,11.850101470947266,-5.298368453979492
1699090668005116400,11.501116455078124,-1.3108254671096802,12.682085990905762,-3.728969097137451
1699090668015138300,11.51113818359375,-2.6635494232177734,13.466187477111816,-2.4025814533233643
1699090668025172500,11.52117236328125,-2.206256866455078,14.338873863220215,-1.9333178997039795
1699090668035168300,11.531168212890625,-1.4401123523712158,15.387534141540527,-2.120065689086914
1699090668045151200,11.541151123046875,-1.9728221893310547,16.031574249267578,-2.8586769104003906
1699090668055239700,11.55123974609375,-1.7836803197860718,16.060304641723633,-3.575740337371826
1699090668065188900,11.56118896484375,-1.2425906658172607,15.028404235839844,-3.6308069229125977
1699090668075200500,11.571200439453126,-0.8738836050033569,13.693636894226074,-3.008314371109009
1699090668085273600,11.581273681640624,-0.6105214357376099,12.597092628479004,-2.385822057723999
1699090668095334000,11.591333984375,-0.3124433159828186,11.817779541015625,-1.9632453918457031
1699090668105410000,11.60141015625,-0.751779317855835,11.496956825256348,-1.6496049165725708
1699090668115349000,11.611348876953125,-0.9540894031524658,11.411962509155273,-1.6974890232086182
1699090668125250600,11.62125048828125,-0.730231523513794,11.289857864379883,-2.12485408782959
1699090668135200300,11.6312001953125,-0.7805097699165344,10.9307279586792,-2.8191723823547363
1699090668145169700,11.641169677734375,-1.359906554222107,10.791864395141602,-3.4368765354156494
1699090668155225900,11.651225830078126,-1.5095441341400146,10.822988510131836,-4.288015365600586
1699090668165231900,11.66123193359375,-0.849941611289978,10.85171890258789,-5.219359874725342
1699090668175265500,11.671265625,-0.47884035110473633,10.898406028747559,-5.66228723526001
1699090668185276700,11.681276611328125,-0.5734112858772278,10.925939559936523,-5.134365558624268
1699090668195282400,11.691282470703126,-0.7003039717674255,10.779892921447754,-4.744110584259033
1699090668205288700,11.701288818359375,-0.5722141861915588,10.60032844543457,-4.37420654296875
1699090668215241200,11.7112412109375,-0.2717418968677521,10.51174259185791,-3.9600095748901367
1699090668225286700,11.72128662109375,-0.009576806798577309,10.481815338134766,-3.554192304611206
1699090668235379500,11.73137939453125,0.13527239859104156,10.529699325561523,-3.26688814163208
1699090668245374200,11.741374267578125,0.30286651849746704,10.564414978027344,-3.179499864578247
1699090668255434500,11.7514345703125,0.5973533391952515,10.632649421691895,-3.1459810733795166
1699090668265415200,11.761415283203124,1.072602391242981,10.5344877243042,-3.2764649391174316
1699090668275366700,11.77136669921875,1.5622166395187378,10.38604736328125,-3.116053581237793
1699090668285367800,11.781367919921875,1.0115501880645752,10.320206642150879,-2.6372132301330566
1699090668295389400,11.791389404296876,-0.30526071786880493,10.125079154968262,-2.697068214416504
1699090668305366800,11.80136669921875,-0.31842881441116333,10.050858497619629,-3.135207176208496
1699090668315298300,11.81129833984375,0.28371289372444153,10.062829971313477,-3.2573113441467285
1699090668325321200,11.8213212890625,-0.05985504388809204,9.919178009033203,-3.162740468978882
1699090668335339000,11.831339111328125,-0.29209262132644653,9.718064308166504,-2.894589900970459
1699090668345346600,11.8413466796875,-0.12090718746185303,9.428366661071777,-2.626439332962036
1699090668355356200,11.851356201171875,0.6141127347946167,9.016563415527344,-2.2613234519958496
1699090668365287700,11.86128759765625,1.2413935661315918,8.453926086425781,-1.866280198097229
1699090668375301400,11.87130126953125,1.1755530834197998,7.795520782470703,-1.6316484212875366
1699090668385305000,11.88130517578125,1.0546458959579468,7.12155294418335,-1.4425065517425537
1699090668395268000,11.89126806640625,1.0283095836639404,6.5062432289123535,-1.3982137441635132
1699090668405289000,11.9012890625,0.49799394607543945,6.139930248260498,-1.3718775510787964
1699090668415249400,11.91124951171875,0.42377370595932007,5.962759494781494,-1.437718152999878
1699090668425276200,11.921276123046875,0.4836287498474121,5.801150798797607,-1.6400281190872192
1699090668435406600,11.931406494140624,0.31603461503982544,5.585672378540039,-1.7980455160140991
1699090668445459200,11.941459228515624,0.6596025824546814,5.400122165679932,-1.8543092012405396
1699090668455444200,11.9514443359375,0.9385270476341248,5.292382717132568,-1.920149803161621
1699090668465356500,11.9613564453125,1.2114660739898682,5.340266704559326,-2.1356279850006104
1699090668475726800,11.971726806640625,1.6412252187728882,5.544970989227295,-2.1475989818573
1699090668485459000,11.981458984375,1.6412252187728882,5.829881191253662,-2.1475989818573
1699090668495378400,11.99137841796875,1.4856021404266357,6.112396717071533,-1.9357120990753174
1699090668505345300,12.00134521484375,1.557428240776062,5.78678560256958,-1.9153614044189453
1699090668515677700,12.011677734375,1.6136919260025024,5.449203014373779,-1.7286136150360107
1699090668525495800,12.021495849609375,1.8183962106704712,5.373785495758057,-1.523909330368042
1699090668535415300,12.031415283203126,2.5965118408203125,5.521028995513916,-1.4736311435699463
1699090668545366800,12.04136669921875,1.8746598958969116,5.835866451263428,-1.6089035272598267
1699090668555347000,12.051346923828126,0.26815059781074524,6.329071998596191,-1.5610195398330688
1699090668565406000,12.061406005859375,0.6165069341659546,6.5265936851501465,-1.703474521636963
1699090668575365400,12.071365478515625,0.8978256583213806,6.66904878616333,-1.8183962106704712
1699090668585342700,12.0813427734375,0.7350199222564697,6.904877662658691,-1.6723499298095703
1699090668595306000,12.091305908203125,0.8259995579719543,7.114370346069336,-1.764526605606079
1699090668605332500,12.10133251953125,0.99479079246521,7.349001884460449,-1.9524714946746826
1699090668615344000,12.11134423828125,0.43095630407333374,7.625532627105713,-1.9536685943603516
1699090668625353200,12.121353271484375,0.05267243832349777,7.7655930519104,-2.1080946922302246
1699090668635364600,12.131364501953126,0.06344634294509888,7.796717643737793,-2.45285964012146
1699090668645418800,12.141418701171874,0.040701430290937424,7.975085735321045,-2.7964274883270264
1699090668655393300,12.151393310546876,0.2214636504650116,8.322244644165039,-3.19865345954895
1699090668665376800,12.161376708984376,0.6560112833976746,8.850166320800781,-3.5661635398864746
1699090668675365400,12.171365478515625,0.9528923034667969,9.405621528625488,-3.7002387046813965
1699090668685361200,12.181361083984376,1.0522516965866089,9.86770248413086,-3.6798880100250244
1699090668695362000,12.191362060546876,0.8990227580070496,10.20648193359375,-3.6750996112823486
1699090668705357000,12.201357177734375,0.6308721303939819,10.459070205688477,-3.6296098232269287
1699090668715346400,12.211346435546876,0.7613561153411865,10.56800651550293,-3.642777919769287
1699090668725458700,12.221458740234375,0.9792284965515137,10.562021255493164,-3.690661907196045
1699090668735343400,12.23134326171875,1.337161660194397,10.475829124450684,-3.9827544689178467
1699090668745274000,12.241274169921875,1.6508020162582397,10.548852920532227,-3.9049429893493652
1699090668755232500,12.251232421875,1.403002142906189,10.6709566116333,-3.648763418197632
1699090668765155300,12.2611552734375,1.4257471561431885,10.609905242919922,-3.6296098232269287
1699090668775243300,12.2712431640625,1.414973258972168,10.483012199401855,-3.6391866207122803
1699090668785261000,12.281260986328125,1.5861586332321167,10.33098030090332,-3.554192304611206
1699090668795241000,12.291240966796876,1.8387469053268433,9.961075782775879,-3.6296098232269287
1699090668805257000,12.301257080078125,1.801636815071106,9.411606788635254,-3.5948939323425293
1699090668815259100,12.311259033203125,1.946485996246338,9.118317604064941,-3.4751837253570557
1699090668825281000,12.321281005859374,1.88782799243927,8.834604263305664,-3.442862033843994
1699090668835276500,12.331276611328125,1.9943699836730957,8.663418769836426,-3.341108560562134
1699090668845352700,12.341352783203124,2.183511972427368,8.71369743347168,-3.0131027698516846
1699090668855335400,12.35133544921875,2.4576480388641357,8.759186744689941,-2.7557260990142822
1699090668865332700,12.361332763671875,2.3558945655822754,8.737639427185059,-2.5905263423919678
1699090668875324000,12.371323974609375,2.0242974758148193,8.605957984924316,-2.537853717803955
1699090668885307400,12.381307373046875,1.8806453943252563,8.368931770324707,-2.677914619445801
1699090668895249200,12.391249267578125,1.6400281190872192,8.169015884399414,-2.7964274883270264
1699090668905259500,12.401259521484375,1.238999366760254,8.015787124633789,-2.831143617630005
1699090668915257900,12.4112578125,1.237802267074585,7.882909297943115,-2.9987375736236572
1699090668925249800,12.421249755859375,1.4269442558288574,7.797914981842041,-3.362656354904175
1699090668935201500,12.431201416015625,1.6412252187728882,7.818265438079834,-3.584120035171509
1699090668945246700,12.441246826171875,1.6280571222305298,7.870938301086426,-3.558980941772461
1699090668955221200,12.45122119140625,1.5382746458053589,7.976283073425293,-3.375824451446533
1699090668965205800,12.461205810546875,1.4401123523712158,8.127118110656738,-3.2609026432037354
1699090668975241700,12.47124169921875,1.4437036514282227,8.348581314086914,-3.1663317680358887
1699090668985237500,12.481237548828124,1.4975731372833252,8.647856712341309,-3.1196448802948
1699090668995241200,12.4912412109375,1.721431016921997,8.883685111999512,-3.1651346683502197
1699090669005258500,12.501258544921875,2.0219032764434814,9.048885345458984,-3.0394389629364014
1699090669015283200,12.511283203125,1.88782799243927,9.157821655273438,-2.762908697128296
1699090669025387300,12.52138720703125,1.5729905366897583,8.966285705566406,-2.9712042808532715
1699090669035278000,12.531278076171875,1.6160861253738403,8.609549522399902,-3.512293815612793
1699090669045244400,12.541244384765625,1.7872716188430786,8.508993148803711,-3.75291109085083
1699090669055174700,12.551174560546874,1.8567034006118774,8.553285598754883,-3.670311212539673
1699090669065177300,12.56117724609375,1.9129672050476074,8.607154846191406,-3.4524388313293457
1699090669075157800,12.57115771484375,1.86508309841156,8.78073501586914,-2.9867665767669678
1699090669085159400,12.581159423828124,1.9033904075622559,9.05247688293457,-2.5773582458496094
1699090669095165700,12.591165771484375,1.6891093254089355,9.320627212524414,-2.5677812099456787
1699090669105162800,12.601162841796874,1.5717934370040894,9.552865028381348,-2.5474305152893066
1699090669115100000,12.611099853515626,1.5610195398330688,9.68574333190918,-2.4791958332061768
1699090669125081900,12.621081787109375,1.4676456451416016,9.532513618469238,-2.5294740200042725
1699090669135122000,12.631121826171874,1.315613865852356,9.408015251159668,-2.5330653190612793
1699090669145145600,12.6411455078125,1.1815385818481445,9.27034854888916,-2.604891538619995
1699090669155222300,12.65122216796875,0.9768342971801758,9.14345645904541,-2.827552318572998
1699090669165205500,12.66120556640625,0.8176198601722717,9.130288124084473,-3.0346505641937256
1699090669175181800,12.671181884765625,0.8020575642585754,9.205705642700195,-3.1100680828094482
1699090669185235000,12.68123486328125,0.9421183466911316,9.275136947631836,-3.0322563648223877
1699090669195280000,12.69127978515625,0.8355764150619507,9.257181167602539,-2.8993782997131348
1699090669205289500,12.70128955078125,0.6643909811973572,9.198522567749023,-2.7676970958709717
1699090669215285200,12.71128515625,0.4991910457611084,9.20091724395752,-2.742558002471924
1699090669225274000,12.721274169921875,0.6129156351089478,9.279925346374512,-2.807201385498047
1699090669235327000,12.731326904296875,0.8810662031173706,9.410409927368164,-2.89339280128479
1699090669245311500,12.7413115234375,0.9864110946655273,9.48462963104248,-2.9927520751953125
1699090669255303200,12.75130322265625,1.0869675874710083,9.39245319366455,-3.1304187774658203
1699090669265281000,12.761281005859376,1.2689268589019775,9.856928825378418,-3.441664934158325
1699090669275272200,12.771272216796875,1.3611036539077759,10.064026832580566,-3.712209701538086
1699090669285284000,12.7812841796875,1.313219666481018,10.123882293701172,-3.3949780464172363
1699090669295337000,12.7913369140625,1.1408370733261108,9.884461402893066,-3.1447839736938477
1699090669305310500,12.801310546875,1.0642226934432983,9.695320129394531,-3.043030261993408
1699090669315290400,12.811290283203125,1.1312602758407593,9.554061889648438,-2.671929121017456
1699090669325278200,12.8212783203125,1.0761936902999878,9.469067573547363,-2.5941176414489746
1699090669335280600,12.83128076171875,1.2342109680175781,9.697713851928711,-2.3965959548950195
1699090669345303800,12.8413037109375,1.2665326595306396,9.75517463684082,-2.2038626670837402
1699090669355370000,12.851369873046876,1.235408067703247,9.750386238098145,-2.1368250846862793
1699090669365406500,12.861406494140626,1.2246341705322266,9.838972091674805,-1.968033790588379
1699090669375351300,12.871351318359375,1.035492181777954,9.707290649414062,-2.1954829692840576
1699090669385329700,12.88132958984375,1.0546458959579468,9.694122314453125,-2.4863784313201904
1699090669395249000,12.891248779296875,1.0977414846420288,9.667786598205566,-2.586935043334961
1699090669405350000,12.901349853515624,1.0055646896362305,9.578003883361816,-2.632424831390381
1699090669415466500,12.911466552734375,0.8343793153762817,9.305065155029297,-2.8455088138580322
1699090669425330700,12.92133056640625,0.7841010689735413,8.62391471862793,-3.163937568664551
1699090669435380700,12.931380615234374,0.7577648162841797,8.89685344696045,-2.8574798107147217
1699090669445339400,12.94133935546875,0.6572083830833435,8.979453086853027,-2.403778553009033
1699090669455373300,12.951373291015624,0.646434485912323,9.089587211608887,-2.535459518432617
1699090669465371100,12.96137109375,0.8068459630012512,9.172186851501465,-2.806004285812378
